delay,freq,condition,thisN,thisTrialN,thisRepN,key_resp.keys,key_resp.rt,key_resp.duration,textbox.text,mouse.x,mouse.y,mouse.leftButton,mouse.midButton,mouse.rightButton,mouse.time,button.numClicks,button.timesOn,button.timesOff,trials.thisRepN,trials.thisTrialN,trials.thisN,trials.thisIndex,thisRow.t,notes,trial.started,fixation.started,fixation_.started,key_resp.started,fixation.stopped,trial.stopped,trials.key_resp.keys,trials.key_resp.rt,trials.key_resp.duration,beep.started,sound_1.started,sound_1.stopped,beep.stopped,response.started,text.started,textbox.started,mouse.started,button.started,response.stopped,trials.textbox.text,trials.mouse.x,trials.mouse.y,trials.mouse.leftButton,trials.mouse.midButton,trials.mouse.rightButton,trials.mouse.time,trials.button.numClicks,trials.button.timesOn,trials.button.timesOff,participant,session,date,expName,psychopyVersion,frameRate,expStart,
0.4,1000,exp,0,0,0,space,0.37351390000549145,None,600,[-0.006666666666666667],[-0.3433333333333333],[1],[0],[0],[3.563170199995511],1,[3.554134600010002],[3.5541455000056885],0,0,0,4,0.060818499987362884,,0.04094349998922553,0.060818499987362884,0.11140579999482725,1.0118718999874545,1.0618435999931535,1.4018168999900809,space,0.37351390000549145,None,1.4022965999902226,1.8117861666580817,2.1266411999968113,2.116296299995156,2.117238599996199,2.1266411999968113,2.1266411999968113,0.0009446000040043145,2.1266411999968113,5.6814796999969985,600,[-0.006666666666666667],[-0.3433333333333333],[1],[0],[0],[3.563170199995511],1,[3.554134600010002],[3.5541455000056885],01,001,2024-11-13_22h56.19.559,Intentional Binding,2024.2.1post4,59.71286471856894,2024-11-13 23h04.25.136437 +0530,
0.7,1000,exp,1,1,0,space,0.4777748999913456,None,700,[-0.006666666666666667],[-0.3433333333333333],[1],[0],[0],[3.2002132999914465],1,[3.1857405999908224],[3.1857465999928536],0,1,1,5,5.6944343999930425,,5.681933299987577,5.6944343999930425,5.794877199994517,6.694630499987397,6.694630499987397,7.181141999986721,space,0.4777748999913456,None,7.1820497999869986,7.894564366655929,8.211249199986923,8.196238599994103,8.196569999985513,8.211249199986923,8.211249199986923,0.00033850000181701034,8.211249199986923,11.397574899994652,700,[-0.006666666666666667],[-0.3433333333333333],[1],[0],[0],[3.2002132999914465],1,[3.1857405999908224],[3.1857465999928536],01,001,2024-11-13_22h56.19.559,Intentional Binding,2024.2.1post4,59.71286471856894,2024-11-13 23h04.25.136437 +0530,
0.7,400,unexp,2,2,0,space,2.989235099987127,None,300,[0.028333333333333332],[-0.315],[1],[0],[0],[4.0662057000008645],1,[4.053035600009025],[4.053040200000396],0,2,2,2,11.41137929999968,,11.397806399996625,11.41137929999968,11.511159499990754,12.411542099987855,12.411542099987855,15.413735299996915,space,2.989235099987127,None,15.414150699987658,16.12837536665417,16.444713199991384,16.43097959998704,16.43132789999072,16.444713199991384,16.444713199991384,0.00035600000410340726,16.444713199991384,20.498345499989227,300,[0.028333333333333332],[-0.315],[1],[0],[0],[4.0662057000008645],1,[4.053035600009025],[4.053040200000396],01,001,2024-11-13_22h56.19.559,Intentional Binding,2024.2.1post4,59.71286471856894,2024-11-13 23h04.25.136437 +0530,
0.4,1000,exp,3,3,0,space,26.124064899995574,None,400,[0.043333333333333335],[-0.36],[1],[0],[0],[3.034642199985683],0,,,0,3,3,10,20.511055799986934,,20.498567799993907,20.511055799986934,20.61083159998816,21.51117169999634,21.51117169999634,47.64551799999026,space,26.124064899995574,None,47.645962999988114,48.05979296665852,48.3759502999892,48.36025289999088,48.3607367999939,48.3759502999892,48.3759502999892,0.0005052999913459644,48.3759502999892,51.39615749999939,400,[0.043333333333333335],[-0.36],[1],[0],[0],[3.034642199985683],0,,,01,001,2024-11-13_22h56.19.559,Intentional Binding,2024.2.1post4,59.71286471856894,2024-11-13 23h04.25.136437 +0530,
0.1,1000,exp,4,4,0,space,0.4877368000015849,None,200,[0.045],[-0.32166666666666666],[1],[0],[0],[3.2183050000021467],1,[3.2035224999999627],[3.203527200006647],0,4,4,3,51.40949309999996,,51.39635719999205,51.40949309999996,51.50964959998964,52.409680099997786,52.409680099997786,52.91237389999151,space,0.4877368000015849,None,52.91287299999385,53.02594486666591,53.34218109998619,53.32688679998682,53.327197399994475,53.34218109998619,53.34218109998619,0.0003175000019837171,53.34218109998619,56.54628489998868,200,[0.045],[-0.32166666666666666],[1],[0],[0],[3.2183050000021467],1,[3.2035224999999627],[3.203527200006647],01,001,2024-11-13_22h56.19.559,Intentional Binding,2024.2.1post4,59.71286471856894,2024-11-13 23h04.25.136437 +0530,
0.1,1000,exp,5,5,0,space,0.6527474999893457,None,150,[0.045],[-0.32166666666666666],[1],[0],[0],[3.4353511999943294],1,[3.419824900003732],[3.4198292000073707],0,5,5,6,56.559567399992375,,56.54651279999234,56.559567399992375,56.659635699994396,57.55936029998702,57.55936029998702,58.228008299993235,space,0.6527474999893457,None,58.228441299987026,58.34227556665816,58.65877689998888,58.64272799999162,58.64306239999132,58.65877689998888,58.65877689998888,0.0003423000016482547,58.65877689998888,62.079377299989574,150,[0.045],[-0.32166666666666666],[1],[0],[0],[3.4353511999943294],1,[3.419824900003732],[3.4198292000073707],01,001,2024-11-13_22h56.19.559,Intentional Binding,2024.2.1post4,59.71286471856894,2024-11-13 23h04.25.136437 +0530,
0.4,400,unexp,6,6,0,space,0.06488489999901503,None,700,[0.045],[-0.32166666666666666],[1],[0],[0],[2.384466900010011],1,[2.369300899998052],[2.3693057999917073],0,6,6,1,62.09305909999239,,62.07983359998616,62.09305909999239,62.19319409999298,63.092883299992536,63.092883299992536,63.16287049998937,space,0.06488489999901503,None,63.16335979998985,63.576390166654406,63.892007099988405,63.87624029998551,63.87664049999148,63.892007099988405,63.892007099988405,0.00039590000233147293,63.892007099988405,66.26187679999566,700,[0.045],[-0.32166666666666666],[1],[0],[0],[2.384466900010011],1,[2.369300899998052],[2.3693057999917073],01,001,2024-11-13_22h56.19.559,Intentional Binding,2024.2.1post4,59.71286471856894,2024-11-13 23h04.25.136437 +0530,
0.7,1000,exp,7,7,0,space,0.0536699999938719,None,800,[0.045],[-0.32166666666666666],[1],[0],[0],[2.485705000013695],1,[2.47026289999485],[2.470267700002296],0,7,7,11,66.27602289999777,,66.2622551999957,66.27602289999777,66.37626899998577,67.27592679999361,67.27592679999361,67.3455804999976,space,0.0536699999938719,None,67.34625309999683,68.05902456665741,68.37549409999338,68.35954109999875,68.35985549999168,68.37549409999338,68.37549409999338,0.00032029999420046806,68.37549409999338,70.8462276999926,800,[0.045],[-0.32166666666666666],[1],[0],[0],[2.485705000013695],1,[2.47026289999485],[2.470267700002296],01,001,2024-11-13_22h56.19.559,Intentional Binding,2024.2.1post4,59.71286471856894,2024-11-13 23h04.25.136437 +0530,
0.1,400,unexp,8,8,0,space,0.1524570999899879,None,700,[0.041666666666666664],[-0.29],[1],[0],[0],[3.1031692000105977],1,[3.0866642000037245],[3.086668699994334],0,8,8,0,70.85948459999054,,70.84644439999829,70.85948459999054,70.95897929999046,71.85967819999496,71.85967819999496,72.02818909999041,space,0.1524570999899879,None,72.02861089998623,72.14281016665724,72.45852509999531,72.44143899998744,72.44179089998943,72.45852509999531,72.45852509999531,0.0003699000080814585,72.45852509999531,75.5457902999915,700,[0.041666666666666664],[-0.29],[1],[0],[0],[3.1031692000105977],1,[3.0866642000037245],[3.086668699994334],01,001,2024-11-13_22h56.19.559,Intentional Binding,2024.2.1post4,59.71286471856894,2024-11-13 23h04.25.136437 +0530,
0.1,1000,exp,9,9,0,space,0.10233809999772348,None,140,[0.041666666666666664],[-0.29],[1],[0],[0],[2.2520489000016823],1,[2.236759699997492],[2.236764300003415],0,9,9,9,75.55909939999401,,75.54602279998653,75.55909939999401,75.6590109999961,76.55910179999773,76.55910179999773,76.67854329998954,space,0.10233809999772348,None,76.67897189999348,76.79211776666149,77.10852309998882,77.092461799999,77.09295259999635,77.10852309998882,77.10852309998882,0.0005117000109748915,77.10852309998882,79.34591299999738,140,[0.041666666666666664],[-0.29],[1],[0],[0],[2.2520489000016823],1,[2.236759699997492],[2.236764300003415],01,001,2024-11-13_22h56.19.559,Intentional Binding,2024.2.1post4,59.71286471856894,2024-11-13 23h04.25.136437 +0530,
0.7,1000,exp,10,10,0,space,0.35966909999842755,None,800,[0.041666666666666664],[-0.29],[1],[0],[0],[3.1678544000023976],1,[3.152896299987333],[3.1529007999924943],0,10,10,8,79.35910629999125,,79.34620789998735,79.35910629999125,79.45931319998635,80.35880109999562,80.35880109999562,80.72943219999433,space,0.35966909999842755,None,80.72995559999254,81.44258746665243,81.7584671999939,81.7429875999951,81.74332799999684,81.7584671999939,81.7584671999939,0.00034839998988900334,81.7584671999939,84.91204289998859,800,[0.041666666666666664],[-0.29],[1],[0],[0],[3.1678544000023976],1,[3.152896299987333],[3.1529007999924943],01,001,2024-11-13_22h56.19.559,Intentional Binding,2024.2.1post4,59.71286471856894,2024-11-13 23h04.25.136437 +0530,
0.4,1000,exp,11,11,0,space,0.002817600005073473,None,400,[0.041666666666666664],[-0.29],[1],[0],[0],[2.933081700000912],1,[2.9180377000011504],[2.91804219999176],0,11,11,7,84.92562379999436,,84.9122684999893,84.92562379999436,85.0258504999947,85.9255933999957,85.9255933999957,85.94455399998697,space,0.002817600005073473,None,85.94498999998905,86.35893066665837,86.6759505999944,86.6604018999933,86.66072899999563,86.6759505999944,86.6759505999944,0.00033320000511594117,86.6759505999944,89.59456629998749,400,[0.041666666666666664],[-0.29],[1],[0],[0],[2.933081700000912],1,[2.9180377000011504],[2.91804219999176],01,001,2024-11-13_22h56.19.559,Intentional Binding,2024.2.1post4,59.71286471856894,2024-11-13 23h04.25.136437 +0530,
0.7,1000,exp,12,0,1,space,0.2732378999935463,None,400,[0.041666666666666664],[-0.29],[1],[0],[0],[3.7857594000088284],1,[3.769563499998185],[3.769568400006392],1,0,12,5,89.60997299999872,,89.59479329999886,89.60997299999872,89.70862739998847,90.60873189999256,90.60873189999256,90.89513209999132,space,0.2732378999935463,None,90.89561719998892,91.6089468666653,91.92499929999758,91.90826259998721,91.90859599999385,91.92499929999758,91.92499929999758,0.00034100000630132854,91.92499929999758,95.69516619999195,400,[0.041666666666666664],[-0.29],[1],[0],[0],[3.7857594000088284],1,[3.769563499998185],[3.769568400006392],01,001,2024-11-13_22h56.19.559,Intentional Binding,2024.2.1post4,59.71286471856894,2024-11-13 23h04.25.136437 +0530,
0.1,1000,exp,13,1,1,space,0.2015384999976959,None,150,[0.041666666666666664],[-0.29],[1],[0],[0],[3.7503563000063878],1,[3.736418800006504],[3.736423599999398],1,1,13,9,95.70854419999523,,95.69538889999967,95.70854419999523,95.80868399998872,96.70823139999993,96.70823139999993,96.91143669998564,space,0.2015384999976959,None,96.91185259999475,97.0254143666573,97.34127599999192,97.32676929999434,97.32711549999658,97.34127599999192,97.34127599999192,0.00034810000215657055,97.34127599999192,101.07816919998731,150,[0.041666666666666664],[-0.29],[1],[0],[0],[3.7503563000063878],1,[3.736418800006504],[3.736423599999398],01,001,2024-11-13_22h56.19.559,Intentional Binding,2024.2.1post4,59.71286471856894,2024-11-13 23h04.25.136437 +0530,
0.1,1000,exp,14,2,1,space,0.21378190000541508,None,200,[0.041666666666666664],[-0.29],[1],[0],[0],[2.4535228999884566],1,[2.436538900001324],[2.436543599993456],1,2,14,6,101.09182789998886,,101.07840069998929,101.09182789998886,101.19195539999055,102.0924331999995,102.0924331999995,102.31147329999658,space,0.21378190000541508,None,102.31194929999765,102.42578736665406,102.74156719999155,102.72402909999073,102.72436459999881,102.74156719999155,102.74156719999155,0.00034159999631810933,102.74156719999155,105.17864839998947,200,[0.041666666666666664],[-0.29],[1],[0],[0],[2.4535228999884566],1,[2.436538900001324],[2.436543599993456],01,001,2024-11-13_22h56.19.559,Intentional Binding,2024.2.1post4,59.71286471856894,2024-11-13 23h04.25.136437 +0530,
0.4,1000,exp,15,3,1,space,0.19160169998940546,None,800,[0.041666666666666664],[-0.29],[1],[0],[0],[3.1031750999973156],1,[3.086793399997987],[3.0867980999901192],1,3,15,7,105.1922721999872,,105.17887179998797,105.1922721999872,105.29186289999052,106.19207809999352,106.19207809999352,106.39533849999134,space,0.19160169998940546,None,106.39601479998964,106.80847256665972,107.12507609999739,107.10820160000003,107.10850439999194,107.12507609999739,107.12507609999739,0.0003085000062128529,107.12507609999739,110.21237329998985,800,[0.041666666666666664],[-0.29],[1],[0],[0],[3.1031750999973156],1,[3.086793399997987],[3.0867980999901192],01,001,2024-11-13_22h56.19.559,Intentional Binding,2024.2.1post4,59.71286471856894,2024-11-13 23h04.25.136437 +0530,
0.4,1000,exp,16,4,1,space,0.4113264000043273,None,809,[0.041666666666666664],[-0.29],[1],[0],[0],[3.4208627000043634],1,[3.4030012999864994],[3.4030065999977523],1,4,16,10,110.22510179999517,,110.21259869998903,110.22510179999517,110.32522079999035,111.22527359999367,111.22527359999367,111.64477139999508,space,0.4113264000043273,None,111.6452350999898,112.05918636665253,112.37467509999988,112.35609750000003,112.3565474999923,112.37467509999988,112.37467509999988,0.0004741000011563301,112.37467509999988,115.77814249999938,809,[0.041666666666666664],[-0.29],[1],[0],[0],[3.4208627000043634],1,[3.4030012999864994],[3.4030065999977523],01,001,2024-11-13_22h56.19.559,Intentional Binding,2024.2.1post4,59.71286471856894,2024-11-13 23h04.25.136437 +0530,
0.4,1000,exp,17,5,1,space,1.1277197000017622,None,170,[0.041666666666666664],[-0.29],[1],[0],[0],[3.4385285999887856],1,[3.4205897000065306],[3.4205947000009473],1,5,17,4,115.79180829999677,,115.77836519999255,115.79180829999677,115.89194659999339,116.7918737,116.7918737,117.92874829999346,space,1.1277197000017622,None,117.9292742999969,118.3415908666541,118.65780369999993,118.6391764999862,118.63960609999776,118.65780369999993,118.65780369999993,0.0004523999959928915,118.65780369999993,122.07900889999291,170,[0.041666666666666664],[-0.29],[1],[0],[0],[3.4385285999887856],1,[3.4205897000065306],[3.4205947000009473],01,001,2024-11-13_22h56.19.559,Intentional Binding,2024.2.1post4,59.71286471856894,2024-11-13 23h04.25.136437 +0530,
0.7,1000,exp,18,6,1,space,0.352726299999631,None,500,[0.041666666666666664],[-0.29],[1],[0],[0],[2.580871999991359],1,[2.5696254999929806],[2.569630400001188],1,6,18,8,122.09182439999131,,122.07923059999302,122.09182439999131,122.19177859999763,123.0916911999957,123.0916911999957,123.44590559999051,space,0.352726299999631,None,123.44666649999272,124.15840696666079,124.47467419999884,124.46287469999515,124.46320969999942,124.47467419999884,124.47467419999884,0.000341799997841008,124.47467419999884,127.04487609998614,500,[0.041666666666666664],[-0.29],[1],[0],[0],[2.580871999991359],1,[2.5696254999929806],[2.569630400001188],01,001,2024-11-13_22h56.19.559,Intentional Binding,2024.2.1post4,59.71286471856894,2024-11-13 23h04.25.136437 +0530,
0.7,400,unexp,19,7,1,space,0.5304439000028651,None,800,[0.041666666666666664],[-0.29],[1],[0],[0],[2.7013657000061357],1,[2.6854977999901166],[2.685502499996801],1,7,19,2,127.05804979999084,,127.04509689999395,127.05804979999084,127.15858269999444,128.0581065999868,128.0581065999868,128.59428899998602,space,0.5304439000028651,None,128.5947843999893,129.30821606665657,129.62492309999652,129.608521999995,129.60886029999529,129.62492309999652,129.62492309999652,0.00034559999767225236,129.62492309999652,132.31089089998568,800,[0.041666666666666664],[-0.29],[1],[0],[0],[2.7013657000061357],1,[2.6854977999901166],[2.685502499996801],01,001,2024-11-13_22h56.19.559,Intentional Binding,2024.2.1post4,59.71286471856894,2024-11-13 23h04.25.136437 +0530,
0.1,400,unexp,20,8,1,space,0.02260549999482464,None,600,[0.041666666666666664],[-0.29],[1],[0],[0],[3.3013054999901215],1,[3.2858014999947045],[3.2858061000006273],1,8,20,0,132.32532849999552,,132.31112539999594,132.32532849999552,132.42563299999165,133.32529109998723,133.32529109998723,133.36122209999303,space,0.02260549999482464,None,133.36167269998987,133.47518746665835,133.7909740999894,133.77478809999593,133.77527129999362,133.7909740999894,133.7909740999894,0.00048049999168142676,133.7909740999894,137.07743129998562,600,[0.041666666666666664],[-0.29],[1],[0],[0],[3.3013054999901215],1,[3.2858014999947045],[3.2858061000006273],01,001,2024-11-13_22h56.19.559,Intentional Binding,2024.2.1post4,59.71286471856894,2024-11-13 23h04.25.136437 +0530,
0.1,1000,exp,21,9,1,space,0.32492709999496583,None,150,[0.041666666666666664],[-0.29],[1],[0],[0],[3.1519240999914473],1,[3.136317800002871],[3.136322199992719],1,9,21,3,137.0915854999912,,137.07765549999021,137.0915854999912,137.19183179999527,138.09270179999294,138.09270179999294,138.42783559999953,space,0.32492709999496583,None,138.42869919999794,138.5419008666543,138.8576502999931,138.84150399999635,138.84184209999512,138.8576502999931,138.8576502999931,0.00034890000824816525,138.8576502999931,141.99445019999985,150,[0.041666666666666664],[-0.29],[1],[0],[0],[3.1519240999914473],1,[3.136317800002871],[3.136322199992719],01,001,2024-11-13_22h56.19.559,Intentional Binding,2024.2.1post4,59.71286471856894,2024-11-13 23h04.25.136437 +0530,
0.4,400,unexp,22,10,1,space,0.42707099999825004,None,400,[0.041666666666666664],[-0.29],[1],[0],[0],[3.7852190999983577],1,[3.7693103999918094],[3.7693150999984937],1,10,22,1,142.00812869999208,,141.99469239999598,142.00812869999208,142.10814549999486,143.00812679999217,143.00812679999217,143.44471109998995,space,0.42707099999825004,None,143.44513519998873,143.85803826665895,144.17475409999315,144.15832439999213,144.15866459999233,144.17475409999315,144.17475409999315,0.000348299989127554,144.17475409999315,147.94477969998843,400,[0.041666666666666664],[-0.29],[1],[0],[0],[3.7852190999983577],1,[3.7693103999918094],[3.7693150999984937],01,001,2024-11-13_22h56.19.559,Intentional Binding,2024.2.1post4,59.71286471856894,2024-11-13 23h04.25.136437 +0530,
0.7,1000,exp,23,11,1,space,0.405115499990643,None,500,[0.041666666666666664],[-0.29],[1],[0],[0],[2.232110200013267],1,[2.2186251999955857],[2.2186295999999857],1,11,23,11,147.95794529998966,,147.9452314999944,147.95794529998966,148.0581480999972,148.95818619999045,148.95818619999045,149.37896249999176,space,0.405115499990643,None,149.37950329999148,150.09107146665727,150.40751039999304,150.39351929999248,150.39383639999141,150.40751039999304,150.40751039999304,0.00032360000477638096,150.40751039999304,152.62667779999902,500,[0.041666666666666664],[-0.29],[1],[0],[0],[2.232110200013267],1,[2.2186251999955857],[2.2186295999999857],01,001,2024-11-13_22h56.19.559,Intentional Binding,2024.2.1post4,59.71286471856894,2024-11-13 23h04.25.136437 +0530,
0.1,400,unexp,24,0,2,space,0.3996700999996392,None,300,[0.041666666666666664],[-0.29],[1],[0],[0],[2.986243799998192],1,[2.969705099996645],[2.9697097999887774],2,0,24,0,152.6410973999882,,152.62691699998686,152.6410973999882,152.74137009998958,153.64147989999037,153.64147989999037,154.04375259998778,space,0.3996700999996392,None,154.04417719999037,154.15784326666133,154.47452899999917,154.45742999999493,154.45777539999108,154.47452899999917,154.47452899999917,0.00035400000342633575,154.47452899999917,157.44481539999833,300,[0.041666666666666664],[-0.29],[1],[0],[0],[2.986243799998192],1,[2.969705099996645],[2.9697097999887774],01,001,2024-11-13_22h56.19.559,Intentional Binding,2024.2.1post4,59.71286471856894,2024-11-13 23h04.25.136437 +0530,
0.7,1000,exp,25,1,2,space,0.556020100004389,None,700,[0.041666666666666664],[-0.29],[1],[0],[0],[2.362093999996432],1,[2.3526820999977645],[2.3526870000059716],2,1,25,11,157.457751799986,,157.44504549998965,157.457751799986,157.55796159998863,158.4584818999865,158.4584818999865,159.02796139998827,space,0.556020100004389,None,159.0286955999909,159.74161136665887,160.056892099994,160.04665679999744,160.04719539999496,160.056892099994,160.056892099994,0.0005547000037040561,160.056892099994,162.4101942999987,700,[0.041666666666666664],[-0.29],[1],[0],[0],[2.362093999996432],1,[2.3526820999977645],[2.3526870000059716],01,001,2024-11-13_22h56.19.559,Intentional Binding,2024.2.1post4,59.71286471856894,2024-11-13 23h04.25.136437 +0530,
0.7,1000,exp,26,2,2,space,0.7652862000104506,None,200,[0.041666666666666664],[-0.29],[1],[0],[0],[2.3168943999917246],1,[2.3033512999973027],[2.3033561000047484],2,2,26,5,162.42425259998708,,162.41061709998758,162.42425259998708,162.52423499998986,163.42414009998902,163.42414009998902,164.19398979999823,space,0.7652862000104506,None,164.19440749999194,164.90826566666172,165.22378839999146,165.2095610999968,165.2100303999905,165.22378839999146,165.22378839999146,0.0004763000033563003,165.22378839999146,167.52771389999543,200,[0.041666666666666664],[-0.29],[1],[0],[0],[2.3168943999917246],1,[2.3033512999973027],[2.3033561000047484],01,001,2024-11-13_22h56.19.559,Intentional Binding,2024.2.1post4,59.71286471856894,2024-11-13 23h04.25.136437 +0530,
0.4,400,unexp,27,3,2,space,0.19090849999338388,None,400,[0.041666666666666664],[-0.29],[1],[0],[0],[2.604395900008967],1,[2.585928900007275],[2.58593380000093],2,3,27,1,167.54075249999005,,167.52793449998717,167.54075249999005,167.64116469999135,168.54165769999963,168.54165769999963,168.74370459999773,space,0.19090849999338388,None,168.74414219999744,169.15764586665708,169.47396239999216,169.4549696999893,169.45529529999476,169.47396239999216,169.47396239999216,0.00033209999673999846,169.47396239999216,172.06055119998928,400,[0.041666666666666664],[-0.29],[1],[0],[0],[2.604395900008967],1,[2.585928900007275],[2.58593380000093],01,001,2024-11-13_22h56.19.559,Intentional Binding,2024.2.1post4,59.71286471856894,2024-11-13 23h04.25.136437 +0530,
0.1,1000,exp,28,4,2,space,0.10459739998623263,None,300,[0.041666666666666664],[-0.29],[1],[0],[0],[2.1237071999930777],1,[2.104548099989188],[2.1045525999943493],2,4,28,9,172.0745309999911,,172.0607680999965,172.0745309999911,172.17477519999375,173.074025599999,173.074025599999,173.1946290999913,space,0.10459739998623263,None,173.1955103999935,173.30751686665852,173.6239368999959,173.60421119999955,173.60456509998767,173.6239368999959,173.6239368999959,0.00036240000918041915,173.6239368999959,175.72903999999107,300,[0.041666666666666664],[-0.29],[1],[0],[0],[2.1237071999930777],1,[2.104548099989188],[2.1045525999943493],01,001,2024-11-13_22h56.19.559,Intentional Binding,2024.2.1post4,59.71286471856894,2024-11-13 23h04.25.136437 +0530,
0.1,1000,exp,29,5,2,space,0.06958840000152122,None,100,[0.041666666666666664],[-0.29],[1],[0],[0],[1.9012782000063453],1,[1.8867339999997057],[1.8867388000071514],2,5,29,6,175.74126379999507,,175.72927209999762,175.74126379999507,175.84086639998714,176.7413962999999,176.7413962999999,176.82712069999252,space,0.06958840000152122,None,176.8275544999924,176.94069076666008,177.2569220999867,177.24181419999513,177.24216479998722,177.2569220999867,177.2569220999867,0.00035790000401902944,177.2569220999867,179.14414379998925,100,[0.041666666666666664],[-0.29],[1],[0],[0],[1.9012782000063453],1,[1.8867339999997057],[1.8867388000071514],01,001,2024-11-13_22h56.19.559,Intentional Binding,2024.2.1post4,59.71286471856894,2024-11-13 23h04.25.136437 +0530,
0.1,1000,exp,30,6,2,space,0.07065030001103878,None,130,[0.041666666666666664],[-0.29],[1],[0],[0],[2.6551613999909023],1,[2.6367715999949723],[2.636776399987866],2,6,30,3,179.15726670000004,,179.14436959999148,179.15726670000004,179.25787629999104,180.15738189998956,180.15738189998956,180.24371369999426,space,0.07065030001103878,None,180.24417299999914,180.3571131666579,180.67364229999657,180.65470299999288,180.65503779999563,180.67364229999657,180.67364229999657,0.00034160001087002456,180.67364229999657,183.31100109999534,130,[0.041666666666666664],[-0.29],[1],[0],[0],[2.6551613999909023],1,[2.6367715999949723],[2.636776399987866],01,001,2024-11-13_22h56.19.559,Intentional Binding,2024.2.1post4,59.71286471856894,2024-11-13 23h04.25.136437 +0530,
0.4,1000,exp,31,7,2,space,0.3846981999959098,None,400,[0.041666666666666664],[-0.29],[1],[0],[0],[2.369868599998881],1,[2.352274699995178],[2.352279200000339],2,7,31,7,183.32435709999118,,183.31143499999598,183.32435709999118,183.42420009999478,184.32387029999518,184.32387029999518,184.71059369998693,space,0.3846981999959098,None,184.7110554999963,185.1240424666651,185.4407966999861,185.42267179999908,185.4230142999877,185.4407966999861,185.4407966999861,0.000345499996910803,185.4407966999861,187.79364709999936,400,[0.041666666666666664],[-0.29],[1],[0],[0],[2.369868599998881],1,[2.352274699995178],[2.352279200000339],01,001,2024-11-13_22h56.19.559,Intentional Binding,2024.2.1post4,59.71286471856894,2024-11-13 23h04.25.136437 +0530,
0.4,1000,exp,32,8,2,space,0.21455889999924693,None,500,[0.041666666666666664],[-0.29],[1],[0],[0],[2.4498323000007076],1,[2.436707499990007],[2.4367120999959297],2,8,32,4,187.80759329999273,,187.79408559999138,187.80759329999273,187.90812309998728,188.80744589999085,188.80744589999085,189.0266808999877,space,0.21455889999924693,None,189.0271836999891,189.44052536666666,189.75682649998635,189.7428605999885,189.74341069998627,189.75682649998635,189.75682649998635,0.0005704999930458143,189.75682649998635,192.194201899998,500,[0.041666666666666664],[-0.29],[1],[0],[0],[2.4498323000007076],1,[2.436707499990007],[2.4367120999959297],01,001,2024-11-13_22h56.19.559,Intentional Binding,2024.2.1post4,59.71286471856894,2024-11-13 23h04.25.136437 +0530,
0.4,1000,exp,33,9,2,space,0.25608330000250135,None,300,[0.041666666666666664],[-0.29],[1],[0],[0],[2.3687221000000136],1,[2.3532266999973217],[2.353231399989454],2,9,33,10,192.2071336999943,,192.19441399999778,192.2071336999943,192.30741329999,193.2078882999922,193.2078882999922,193.47691909999412,space,0.25608330000250135,None,193.4773722999962,193.8909082666544,194.20660169998882,194.19055159999698,194.19089779999922,194.20660169998882,194.20660169998882,0.00035349999961908907,194.20660169998882,196.56040129999747,300,[0.041666666666666664],[-0.29],[1],[0],[0],[2.3687221000000136],1,[2.3532266999973217],[2.353231399989454],01,001,2024-11-13_22h56.19.559,Intentional Binding,2024.2.1post4,59.71286471856894,2024-11-13 23h04.25.136437 +0530,
0.7,400,unexp,34,10,2,space,0.49127430000226013,None,700,[0.041666666666666664],[-0.29],[1],[0],[0],[2.735369499991066],1,[2.720567900003516],[2.720573200000217],2,10,34,2,196.5741866999888,,196.56062289999682,196.5741866999888,196.67440729998634,197.57390059999307,197.57390059999307,198.07682079999358,space,0.49127430000226013,None,198.0772852999944,198.79054106666106,199.10680319998937,199.09108219998598,199.09160669999255,199.10680319998937,199.10680319998937,0.0005410999874584377,199.10680319998937,201.82784719999472,700,[0.041666666666666664],[-0.29],[1],[0],[0],[2.735369499991066],1,[2.720567900003516],[2.720573200000217],01,001,2024-11-13_22h56.19.559,Intentional Binding,2024.2.1post4,59.71286471856894,2024-11-13 23h04.25.136437 +0530,
0.7,1000,exp,35,11,2,space,0.23820039999554865,None,500,[0.041666666666666664],[-0.29],[1],[0],[0],[2.214194599990151],1,[2.20230960000481],[2.202313999994658],2,11,35,8,201.84039969999867,,201.8280800999928,201.84039969999867,201.9406328999903,202.84040009998716,202.84040009998716,203.09378369999467,space,0.23820039999554865,None,203.09422279999126,203.80702056666294,204.12335129998974,204.1109604999947,204.11127169999236,204.12335129998974,204.12335129998974,0.00031800000579096377,204.12335129998974,206.3262476999953,500,[0.041666666666666664],[-0.29],[1],[0],[0],[2.214194599990151],1,[2.20230960000481],[2.202313999994658],01,001,2024-11-13_22h56.19.559,Intentional Binding,2024.2.1post4,59.71286471856894,2024-11-13 23h04.25.136437 +0530,
0.1,1000,exp,36,0,3,space,0.36622569999599364,None,160,[0.041666666666666664],[-0.29],[1],[0],[0],[3.1051556000020355],1,[3.0875495000072988],[3.0875539999979082],3,0,36,9,206.34093479999865,,206.32666799999424,206.34093479999865,206.4409430999949,207.34060989999853,207.34060989999853,207.71068929998728,space,0.36622569999599364,None,207.71119639999233,207.82381746666604,208.1398785999918,208.1214975999901,208.1220037999883,208.1398785999918,208.1398785999918,0.0005243999912636355,208.1398785999918,211.22796689999814,160,[0.041666666666666664],[-0.29],[1],[0],[0],[3.1051556000020355],1,[3.0875495000072988],[3.0875539999979082],01,001,2024-11-13_22h56.19.559,Intentional Binding,2024.2.1post4,59.71286471856894,2024-11-13 23h04.25.136437 +0530,
0.4,1000,exp,37,1,3,space,0.31944730000395793,None,500,[0.041666666666666664],[-0.29],[1],[0],[0],[2.880127700002049],1,[2.8689517000020714],[2.868956199992681],3,1,37,4,211.2403229999909,,211.2282189999969,211.2403229999909,211.34056399999827,212.24040769999556,212.24040769999556,212.57642269998905,space,0.31944730000395793,None,212.5769053999975,212.99054666665714,213.3066405999998,213.2947223999945,213.29517519999354,213.3066405999998,213.3066405999998,0.00046689998998772353,213.3066405999998,216.17612169998756,500,[0.041666666666666664],[-0.29],[1],[0],[0],[2.880127700002049],1,[2.8689517000020714],[2.868956199992681],01,001,2024-11-13_22h56.19.559,Intentional Binding,2024.2.1post4,59.71286471856894,2024-11-13 23h04.25.136437 +0530,
0.7,1000,exp,38,2,3,space,155.79425629999605,None,800,[0.07666666666666666],[-0.2683333333333333],[1],[0],[0],[2.4637230999942403],1,[2.45299389999127],[2.452998499997193],3,2,38,8,216.1904327999946,,216.17634079999698,216.1904327999946,216.2913378999947,217.19040219999442,217.19040219999442,372.9913525999873,space,155.79425629999605,None,372.99205529999745,373.704614766659,374.0206277999969,374.009029199995,374.0095810999919,374.0206277999969,374.0206277999969,0.0005711999983759597,374.0206277999969,376.47416919999523,800,[0.07666666666666666],[-0.2683333333333333],[1],[0],[0],[2.4637230999942403],1,[2.45299389999127],[2.452998499997193],01,001,2024-11-13_22h56.19.559,Intentional Binding,2024.2.1post4,59.71286471856894,2024-11-13 23h04.25.136437 +0530,
0.7,1000,exp,39,3,3,space,0.19995929999276996,None,600,[0.07666666666666666],[-0.2683333333333333],[1],[0],[0],[2.321009100007359],1,[2.30328439999721],[2.3032891000038944],3,3,39,11,376.48785869999847,,376.474544599987,376.48785869999847,376.5884700999886,377.4884100999916,377.4884100999916,377.69073479999497,space,0.19995929999276996,None,377.6912348999904,378.40480716666593,378.7206499999884,378.7023571999889,378.7027081999986,378.7206499999884,378.7206499999884,0.000367600005120039,378.7206499999884,381.0245611999999,600,[0.07666666666666666],[-0.2683333333333333],[1],[0],[0],[2.321009100007359],1,[2.30328439999721],[2.3032891000038944],01,001,2024-11-13_22h56.19.559,Intentional Binding,2024.2.1post4,59.71286471856894,2024-11-13 23h04.25.136437 +0530,
0.7,400,unexp,40,4,3,space,0.03397449999465607,None,900,[0.07666666666666666],[-0.2683333333333333],[1],[0],[0],[1.93603469998925],1,[1.919687800007523],[1.919697699995595],3,4,40,2,381.03761519999534,,381.0247756999888,381.03761519999534,381.13740359999065,382.0381703999883,382.0381703999883,382.07428199998685,space,0.03397449999465607,None,382.0747152999975,382.7882531666585,383.103973099991,383.0868236999959,383.0873159999901,383.103973099991,383.103973099991,0.0004859000036958605,383.103973099991,385.0244823999965,900,[0.07666666666666666],[-0.2683333333333333],[1],[0],[0],[1.93603469998925],1,[1.919687800007523],[1.919697699995595],01,001,2024-11-13_22h56.19.559,Intentional Binding,2024.2.1post4,59.71286471856894,2024-11-13 23h04.25.136437 +0530,
0.1,1000,exp,41,5,3,space,0.12215299998933915,None,400,[0.07666666666666666],[-0.2683333333333333],[1],[0],[0],[2.5878531000053044],1,[2.569576699999743],[2.569581099989591],3,5,41,6,385.0384428999969,,385.0249281999859,385.0384428999969,385.13805079998565,386.03804009998566,386.03804009998566,386.1736518999969,space,0.12215299998933915,None,386.1743325999996,386.28779556666655,386.60381519999646,386.58498379999946,386.5853320999886,386.60381519999646,386.60381519999646,0.0003546999942045659,386.60381519999646,389.17398349998984,400,[0.07666666666666666],[-0.2683333333333333],[1],[0],[0],[2.5878531000053044],1,[2.569576699999743],[2.569581099989591],01,001,2024-11-13_22h56.19.559,Intentional Binding,2024.2.1post4,59.71286471856894,2024-11-13 23h04.25.136437 +0530,
0.4,400,unexp,42,6,3,space,0.06133159999444615,None,500,[0.07666666666666666],[-0.2683333333333333],[1],[0],[0],[2.020727800001623],1,[2.0037441999884322],[2.0037532999995165],3,6,42,1,389.1879503999953,,389.17420299998776,389.1879503999953,389.2873355999909,390.18738589998975,390.18738589998975,390.25814209999226,space,0.06133159999444615,None,390.258582399998,390.67126906666476,390.9870252999972,390.96921729999303,390.96968469998683,390.9870252999972,390.9870252999972,0.0004788000078406185,390.9870252999972,392.9915961999941,500,[0.07666666666666666],[-0.2683333333333333],[1],[0],[0],[2.020727800001623],1,[2.0037441999884322],[2.0037532999995165],01,001,2024-11-13_22h56.19.559,Intentional Binding,2024.2.1post4,59.71286471856894,2024-11-13 23h04.25.136437 +0530,
0.7,1000,exp,43,7,3,space,0.5186046000017086,None,900,[0.07666666666666666],[-0.2683333333333333],[1],[0],[0],[2.405791800003499],1,[2.3869272000010824],[2.3869317000062438],3,7,43,5,393.0044110999879,,392.9918114999891,393.0044110999879,393.1043820999912,394.004126099986,394.004126099986,394.52405489998637,space,0.5186046000017086,None,394.5249033,395.238028766664,395.5537972999882,395.534413699992,395.53473489999305,395.5537972999882,395.5537972999882,0.0003271000023232773,395.5537972999882,397.9413121999969,900,[0.07666666666666666],[-0.2683333333333333],[1],[0],[0],[2.405791800003499],1,[2.3869272000010824],[2.3869317000062438],01,001,2024-11-13_22h56.19.559,Intentional Binding,2024.2.1post4,59.71286471856894,2024-11-13 23h04.25.136437 +0530,
0.1,1000,exp,44,8,3,space,0.3466288000054192,None,130,[0.04833333333333333],[-0.3516666666666667],[1],[0],[0],[2.479657200005022],0,,,3,8,44,3,397.9542747999949,,397.94153409999853,397.9542747999949,398.0548005999881,398.9541496999882,398.9541496999882,399.307473199995,space,0.3466288000054192,None,399.3079368999897,399.4208427666638,399.7373962999991,399.7263336999895,399.7268108999997,399.7373962999991,399.7373962999991,0.000487299999804236,399.7373962999991,402.2074753999914,130,[0.04833333333333333],[-0.3516666666666667],[1],[0],[0],[2.479657200005022],0,,,01,001,2024-11-13_22h56.19.559,Intentional Binding,2024.2.1post4,59.71286471856894,2024-11-13 23h04.25.136437 +0530,
0.1,400,unexp,45,9,3,space,0.1582726999913575,None,400,[-0.005],[-0.26],[1],[0],[0],[2.5712032000010367],1,[2.5525930000003427],[2.5526026000006823],3,9,45,0,402.2207958999934,,402.20782269998745,402.2207958999934,402.32096859999,403.22116769998684,403.22116769998684,403.3908902999974,space,0.1582726999913575,None,403.3914175999962,403.5040403666537,403.82051109999884,403.8010704999906,403.80154659999243,403.82051109999884,403.82051109999884,0.0004894000012427568,403.82051109999884,406.37384829999064,400,[-0.005],[-0.26],[1],[0],[0],[2.5712032000010367],1,[2.5525930000003427],[2.5526026000006823],01,001,2024-11-13_22h56.19.559,Intentional Binding,2024.2.1post4,59.71286471856894,2024-11-13 23h04.25.136437 +0530,
0.4,1000,exp,46,10,3,space,0.3645438999956241,None,800,[0.04],[-0.30666666666666664],[1],[0],[0],[2.232590600004187],1,[2.2190306999982568],[2.2190351999888662],3,10,46,10,406.38765389999026,,406.3742593999923,406.38765389999026,406.4880164999922,407.38733359999605,407.38733359999605,407.75709579999966,space,0.3645438999956241,None,407.75771389999136,408.1707842666549,408.4875328999915,408.47326189999876,408.4737757999974,408.4875328999915,408.4875328999915,0.0005112999933771789,408.4875328999915,410.70705749999615,800,[0.04],[-0.30666666666666664],[1],[0],[0],[2.232590600004187],1,[2.2190306999982568],[2.2190351999888662],01,001,2024-11-13_22h56.19.559,Intentional Binding,2024.2.1post4,59.71286471856894,2024-11-13 23h04.25.136437 +0530,
0.4,1000,exp,47,11,3,space,0.09776879999844823,None,400,[0.04],[-0.30666666666666664],[1],[0],[0],[2.519621700004791],1,[2.503976899999543],[2.503981700006989],3,11,47,7,410.7210168999882,,410.70728259999305,410.7210168999882,410.82050909999816,411.7209048999939,411.7209048999939,411.823286999992,space,0.09776879999844823,None,411.8237126999884,412.23768176665567,412.55338529999426,412.5372117999941,412.5375520999951,412.55338529999426,412.55338529999426,0.0003480000013951212,412.55338529999426,415.05794799998694,400,[0.04],[-0.30666666666666664],[1],[0],[0],[2.519621700004791],1,[2.503976899999543],[2.503981700006989],01,001,2024-11-13_22h56.19.559,Intentional Binding,2024.2.1post4,59.71286471856894,2024-11-13 23h04.25.136437 +0530,
0.4,400,unexp,48,0,4,space,0.12645110000448767,None,300,[0.04],[-0.30666666666666664],[1],[0],[0],[2.2857040999952005],1,[2.270731500000693],[2.270736200007377],4,0,48,1,415.0703910999873,,415.0581611999951,415.0703910999873,415.17055169999367,416.07112459999917,416.07112459999917,416.2075092999876,space,0.12645110000448767,None,416.2082991999923,416.6201145666603,416.9366289999889,416.921102399996,416.92144419999386,416.9366289999889,416.9366289999889,0.0003484999906504527,416.9366289999889,419.20789369998965,300,[0.04],[-0.30666666666666664],[1],[0],[0],[2.2857040999952005],1,[2.270731500000693],[2.270736200007377],01,001,2024-11-13_22h56.19.559,Intentional Binding,2024.2.1post4,59.71286471856894,2024-11-13 23h04.25.136437 +0530,
0.4,1000,exp,49,1,4,space,0.5040788000042085,None,130,[0.04],[-0.30666666666666664],[1],[0],[0],[2.468476100009866],1,[2.4537177000020165],[2.4537274000031175],4,1,49,10,419.22078919998603,,419.20811669999966,419.22078919998603,419.32058159999724,420.2205124999891,420.2205124999891,420.74033749999944,space,0.5040788000042085,None,420.7407685999933,421.15381446665947,421.4699547999917,421.4545928999869,421.45489959999395,421.4699547999917,421.4699547999917,0.00031180000223685056,421.4699547999917,423.9243806999875,130,[0.04],[-0.30666666666666664],[1],[0],[0],[2.468476100009866],1,[2.4537177000020165],[2.4537274000031175],01,001,2024-11-13_22h56.19.559,Intentional Binding,2024.2.1post4,59.71286471856894,2024-11-13 23h04.25.136437 +0530,
0.1,1000,exp,50,2,4,space,0.941387400001986,None,140,[0.04],[-0.30666666666666664],[1],[0],[0],[2.532090299995616],1,[2.5205366000009235],[2.520546600004309],4,2,50,9,423.93723619999946,,423.9245934999926,423.93723619999946,424.0368801999866,424.93713659999776,424.93713659999776,425.89018529999885,space,0.941387400001986,None,425.8907068999979,426.00383736666504,426.3198972999962,426.307696799995,426.30803199998627,426.3198972999962,426.3198972999962,0.00034339999547228217,426.3198972999962,428.8412288999971,140,[0.04],[-0.30666666666666664],[1],[0],[0],[2.532090299995616],1,[2.5205366000009235],[2.520546600004309],01,001,2024-11-13_22h56.19.559,Intentional Binding,2024.2.1post4,59.71286471856894,2024-11-13 23h04.25.136437 +0530,
0.7,1000,exp,51,3,4,space,0.03149239999765996,None,600,[0.04],[-0.30666666666666664],[1],[0],[0],[2.000022000007448],1,[1.9855997999984538],[1.9856043999898247],4,3,51,11,428.85361489999923,,428.8416270999878,428.85361489999923,428.9537061999872,429.85378759999,429.85378759999,429.889992299999,space,0.03149239999765996,None,429.8904901999922,430.60407206665354,430.92011629999615,430.90514959998836,430.9054879999894,430.92011629999615,430.92011629999615,0.0003462000022409484,430.92011629999615,432.90633629998774,600,[0.04],[-0.30666666666666664],[1],[0],[0],[2.000022000007448],1,[1.9855997999984538],[1.9856043999898247],01,001,2024-11-13_22h56.19.559,Intentional Binding,2024.2.1post4,59.71286471856894,2024-11-13 23h04.25.136437 +0530,
0.7,1000,exp,52,4,4,space,2.6833328000066103,None,400,[0.04],[-0.30666666666666664],[1],[0],[0],[1.997193100003642],1,[1.9866242999996757],[1.9866292999940924],4,4,52,8,432.9201161999954,,432.90657929998997,432.9201161999954,433.02004959998885,433.9205188999913,433.9205188999913,436.6065731999988,space,2.6833328000066103,None,436.60737009999866,437.32044756666096,437.63642609999806,437.6251285999897,437.62565629999153,437.63642609999806,437.63642609999806,0.0005241000035312027,437.63642609999806,439.62370479998935,400,[0.04],[-0.30666666666666664],[1],[0],[0],[1.997193100003642],1,[1.9866242999996757],[1.9866292999940924],01,001,2024-11-13_22h56.19.559,Intentional Binding,2024.2.1post4,59.71286471856894,2024-11-13 23h04.25.136437 +0530,
0.7,400,unexp,53,5,4,space,0.05782849999377504,None,700,[0.04],[-0.30666666666666664],[1],[0],[0],[1.818018399993889],1,[1.802470299997367],[1.802474700001767],4,5,53,2,439.6374027999991,,439.62393119999615,439.6374027999991,439.7367896999931,440.6373658999946,440.6373658999946,440.70676499999536,space,0.05782849999377504,None,440.7071883999888,441.42029096665306,441.737177899995,441.7210836999875,441.721429799989,441.737177899995,441.737177899995,0.00035180000122636557,441.737177899995,443.5402177999931,700,[0.04],[-0.30666666666666664],[1],[0],[0],[1.818018399993889],1,[1.802470299997367],[1.802474700001767],01,001,2024-11-13_22h56.19.559,Intentional Binding,2024.2.1post4,59.71286471856894,2024-11-13 23h04.25.136437 +0530,
0.1,400,unexp,54,6,4,space,0.2910552999965148,None,800,[0.04],[-0.30666666666666664],[1],[0],[0],[2.566072300003725],1,[2.552786999993259],[2.5527971999981673],4,6,54,0,443.5538644999906,,443.54045219998807,443.5538644999906,443.65384639998956,444.55371049999667,444.55371049999667,444.8558534999902,space,0.2910552999965148,None,444.8562847999856,444.9702600666535,445.2869791999983,445.27306659999886,445.2734099999943,445.2869791999983,445.2869791999983,0.00035060000664088875,445.2869791999983,447.8404834999965,800,[0.04],[-0.30666666666666664],[1],[0],[0],[2.566072300003725],1,[2.552786999993259],[2.5527971999981673],01,001,2024-11-13_22h56.19.559,Intentional Binding,2024.2.1post4,59.71286471856894,2024-11-13 23h04.25.136437 +0530,
0.4,1000,exp,55,7,4,space,0.03880570000910666,None,170,[0.04],[-0.25666666666666665],[1],[0],[0],[3.9133131000126014],1,[3.9026212000026135],[3.9026258000085363],4,7,55,4,447.8541796999925,,447.840695699997,447.8541796999925,447.9532626,448.8538540999871,448.8538540999871,448.90623859998595,space,0.03880570000910666,None,448.90671029999794,449.3198727666643,449.63618139999744,449.6249575999973,449.6252913999924,449.63618139999744,449.63618139999744,0.00034180001239292324,449.63618139999744,453.5392831999925,170,[0.04],[-0.25666666666666665],[1],[0],[0],[3.9133131000126014],1,[3.9026212000026135],[3.9026258000085363],01,001,2024-11-13_22h56.19.559,Intentional Binding,2024.2.1post4,59.71286471856894,2024-11-13 23h04.25.136437 +0530,
0.4,1000,exp,56,8,4,space,0.20158680000167806,None,180,[0.03666666666666667],[-0.31666666666666665],[1],[0],[0],[2.3352966999955242],1,[2.3186802999989595],[2.3186851000064053],4,8,56,7,453.55314419999195,,453.5395128999953,453.55314419999195,453.6533203999861,454.55295349999506,454.55295349999506,454.75653889999376,space,0.20158680000167806,None,454.7570190999977,455.1707453666643,455.48764569999184,455.47034509999503,455.47075719998975,455.48764569999184,455.48764569999184,0.0004403000057209283,455.48764569999184,457.806846099993,180,[0.03666666666666667],[-0.31666666666666665],[1],[0],[0],[2.3352966999955242],1,[2.3186802999989595],[2.3186851000064053],01,001,2024-11-13_22h56.19.559,Intentional Binding,2024.2.1post4,59.71286471856894,2024-11-13 23h04.25.136437 +0530,
0.7,1000,exp,57,9,4,space,0.1523320000123931,None,140,[0.03666666666666667],[-0.31666666666666665],[1],[0],[0],[2.467956200009212],1,[2.451928800001042],[2.451933200005442],4,9,57,5,457.8201623999921,,457.80709399998887,457.8201623999921,457.92035639999085,458.8203017999913,458.8203017999913,458.9900537999929,space,0.1523320000123931,None,458.9905172999861,459.703019666664,460.0201124999876,460.00355569999374,460.0038916999911,460.0201124999876,460.0201124999876,0.00034479999158065766,460.0201124999876,462.4726077999949,140,[0.03666666666666667],[-0.31666666666666665],[1],[0],[0],[2.467956200009212],1,[2.451928800001042],[2.451933200005442],01,001,2024-11-13_22h56.19.559,Intentional Binding,2024.2.1post4,59.71286471856894,2024-11-13 23h04.25.136437 +0530,
0.1,1000,exp,58,10,4,space,0.4856356000091182,None,150,[0.03666666666666667],[-0.31666666666666665],[1],[0],[0],[2.9512103000015486],1,[2.935575300012715],[2.935579700002563],4,10,58,6,462.48713029999635,,462.4728286999889,462.48713029999635,462.5862880999921,463.4870635999978,463.4870635999978,463.98937619999924,space,0.4856356000091182,None,463.9897997999942,464.10298946666103,464.4196723999921,464.4034901999985,464.4038414999959,464.4196723999921,464.4196723999921,0.0003584000078262761,464.4196723999921,467.3557599999913,150,[0.03666666666666667],[-0.31666666666666665],[1],[0],[0],[2.9512103000015486],1,[2.935575300012715],[2.935579700002563],01,001,2024-11-13_22h56.19.559,Intentional Binding,2024.2.1post4,59.71286471856894,2024-11-13 23h04.25.136437 +0530,
0.1,1000,exp,59,11,4,space,0.1755777000071248,None,190,[0.03666666666666667],[-0.31666666666666665],[1],[0],[0],[3.6316010000009555],1,[3.620465799991507],[3.620475699994131],4,11,59,3,467.36970529999235,,467.35598009999376,467.36970529999235,467.46977309999056,468.37078919999476,468.37078919999476,468.5563914999948,space,0.1755777000071248,None,468.5568440999923,468.67037446666313,468.9861527999892,468.9742797999934,468.97471139999107,468.9861527999892,468.9861527999892,0.00042699999175965786,468.9861527999892,472.60729889999493,190,[0.03666666666666667],[-0.31666666666666665],[1],[0],[0],[3.6316010000009555],1,[3.620465799991507],[3.620475699994131],01,001,2024-11-13_22h56.19.559,Intentional Binding,2024.2.1post4,59.71286471856894,2024-11-13 23h04.25.136437 +0530,
0.4,1000,exp,60,0,5,space,0.13134150000405498,None,200,[0.03666666666666667],[-0.31666666666666665],[1],[0],[0],[2.5869883999985177],1,[2.569838499999605],[2.5698487000045134],5,0,60,4,472.6196804999927,,472.60759059998963,472.6196804999927,472.71973949999665,473.61971059998905,473.61971059998905,473.75630019999517,space,0.13134150000405498,None,473.7567553999979,474.1701126666633,474.48585979999916,474.4677726999944,474.4683312999987,474.48585979999916,474.48585979999916,0.0005585000035353005,474.48585979999916,477.05647439998575,200,[0.03666666666666667],[-0.31666666666666665],[1],[0],[0],[2.5869883999985177],1,[2.569838499999605],[2.5698487000045134],01,001,2024-11-13_22h56.19.559,Intentional Binding,2024.2.1post4,59.71286471856894,2024-11-13 23h04.25.136437 +0530,
0.4,400,unexp,61,1,5,space,0.06100259999220725,None,400,[0.03666666666666667],[-0.31666666666666665],[1],[0],[0],[2.452840099998866],1,[2.4361871000000974],[2.436191600005259],5,1,61,1,477.06958529999247,,477.0568847999966,477.06958529999247,477.17017689999193,478.06984699999157,478.06984699999157,478.1403039999859,space,0.06100259999220725,None,478.14080389999435,478.5538473666568,478.86911499999405,478.8516556999966,478.85218709999754,478.86911499999405,478.86911499999405,0.0005482999986270443,478.86911499999405,481.30576749998727,400,[0.03666666666666667],[-0.31666666666666665],[1],[0],[0],[2.452840099998866],1,[2.4361871000000974],[2.436191600005259],01,001,2024-11-13_22h56.19.559,Intentional Binding,2024.2.1post4,59.71286471856894,2024-11-13 23h04.25.136437 +0530,
0.7,400,unexp,62,2,5,space,0.36619479999353644,None,350,[0.03666666666666667],[-0.31666666666666665],[1],[0],[0],[4.217176799997105],1,[4.20348599999852],[4.2034917999990284],5,2,62,2,481.3195210999984,,481.30598779999127,481.3195210999984,481.4193052999908,482.3199861999892,482.3199861999892,482.68934649998846,space,0.36619479999353644,None,482.6897699999972,483.40290896666215,483.71927829999186,483.70488629999454,483.70532269999967,483.71927829999186,483.71927829999186,0.00045790000876877457,483.71927829999186,487.92340149999654,350,[0.03666666666666667],[-0.31666666666666665],[1],[0],[0],[4.217176799997105],1,[4.20348599999852],[4.2034917999990284],01,001,2024-11-13_22h56.19.559,Intentional Binding,2024.2.1post4,59.71286471856894,2024-11-13 23h04.25.136437 +0530,
0.1,1000,exp,63,3,5,space,1.5337937000003876,None,400,[0.03666666666666667],[-0.31666666666666665],[1],[0],[0],[3.4218479999981355],1,[3.404350099997828],[3.4043600999866612],5,3,63,6,487.9361794999859,,487.923621799986,487.9361794999859,488.0361789999879,488.93592779999017,488.93592779999017,490.47183919999225,space,1.5337937000003876,None,490.4722722999868,490.5858548666622,490.9021970999893,490.8839925999928,490.88436949999596,490.9021970999893,490.9021970999893,0.0003868999920086935,490.9021970999893,494.3073857999989,400,[0.03666666666666667],[-0.31666666666666665],[1],[0],[0],[3.4218479999981355],1,[3.404350099997828],[3.4043600999866612],01,001,2024-11-13_22h56.19.559,Intentional Binding,2024.2.1post4,59.71286471856894,2024-11-13 23h04.25.136437 +0530,
0.4,1000,exp,64,4,5,space,0.7085761000053026,None,330,[0.03666666666666667],[-0.31666666666666665],[1],[0],[0],[6.737827000004472],1,[6.720254200001364],[6.720258700006525],5,4,64,10,494.31970549999096,,494.30779639999673,494.31970549999096,494.4200831999915,495.3198177999875,495.3198177999875,496.0394266999938,space,0.7085761000053026,None,496.0398680999933,496.4531042666533,496.768602199998,496.75048929998593,496.75082939999993,496.768602199998,496.768602199998,0.00034749999758787453,496.768602199998,503.48959209999884,330,[0.03666666666666667],[-0.31666666666666665],[1],[0],[0],[6.737827000004472],1,[6.720254200001364],[6.720258700006525],01,001,2024-11-13_22h56.19.559,Intentional Binding,2024.2.1post4,59.71286471856894,2024-11-13 23h04.25.136437 +0530,
0.7,1000,exp,65,5,5,space,0.19015910000598524,None,670,[0.03666666666666667],[-0.31666666666666665],[1],[0],[0],[2.483954699986498],1,[2.470026199996937],[2.47003080000286],5,5,65,11,503.5024604999926,,503.4898072999931,503.5024604999926,503.6027522999939,504.502530999991,504.502530999991,504.7060669999919,space,0.19015910000598524,None,504.706572199997,505.41903236665917,505.7356560999906,505.720917499988,505.7214559999993,505.7356560999906,505.7356560999906,0.0005519999976968393,505.7356560999906,508.20627749999403,670,[0.03666666666666667],[-0.31666666666666665],[1],[0],[0],[2.483954699986498],1,[2.470026199996937],[2.47003080000286],01,001,2024-11-13_22h56.19.559,Intentional Binding,2024.2.1post4,59.71286471856894,2024-11-13 23h04.25.136437 +0530,
0.1,1000,exp,66,6,5,space,0.4545207000046503,None,700,[0.03666666666666667],[-0.31666666666666665],[1],[0],[0],[5.449332199990749],1,[5.436355099998764],[5.436359899991658],5,6,66,3,508.2192025999975,,508.2064931999921,508.2192025999975,508.3194293999986,509.21956299999147,509.21956299999147,509.69022759998916,space,0.4545207000046503,None,509.69073429999116,509.8029603666548,510.11880609999935,510.1050006999867,510.105524899991,510.11880609999935,510.11880609999935,0.0005402999959187582,510.11880609999935,515.5558310999913,700,[0.03666666666666667],[-0.31666666666666665],[1],[0],[0],[5.449332199990749],1,[5.436355099998764],[5.436359899991658],01,001,2024-11-13_22h56.19.559,Intentional Binding,2024.2.1post4,59.71286471856894,2024-11-13 23h04.25.136437 +0530,
0.4,1000,exp,67,7,5,space,0.0847314999991795,None,800,[0.03666666666666667],[-0.31666666666666665],[1],[0],[0],[2.5185435000021243],1,[2.502010700001847],[2.502015100006247],5,7,67,7,515.5692575999856,,515.5560442999995,515.5692575999856,515.6690129999915,516.5693265999871,516.5693265999871,516.6556378999958,space,0.0847314999991795,None,516.6560735999956,517.0689089666596,517.3859392999875,517.3689043999912,517.3692308999889,517.3859392999875,517.3859392999875,0.00033290000283159316,517.3859392999875,519.8886498999927,800,[0.03666666666666667],[-0.31666666666666665],[1],[0],[0],[2.5185435000021243],1,[2.502010700001847],[2.502015100006247],01,001,2024-11-13_22h56.19.559,Intentional Binding,2024.2.1post4,59.71286471856894,2024-11-13 23h04.25.136437 +0530,
0.1,1000,exp,68,8,5,space,0.8975738999870373,None,240,[0.03666666666666667],[-0.31666666666666665],[1],[0],[0],[3.5974129999958677],1,[3.5856990000029327],[3.5857033000065712],5,8,68,9,519.9028928999905,,519.8888718999951,519.9028928999905,520.0023946999863,520.9026572999865,520.9026572999865,521.8050094999926,space,0.8975738999870373,None,521.8054362999974,521.919442966657,522.2350376999966,522.2225178999943,522.2230368999881,522.2350376999966,522.2350376999966,0.0005363000091165304,522.2350376999966,525.8214466999925,240,[0.03666666666666667],[-0.31666666666666665],[1],[0],[0],[3.5974129999958677],1,[3.5856990000029327],[3.5857033000065712],01,001,2024-11-13_22h56.19.559,Intentional Binding,2024.2.1post4,59.71286471856894,2024-11-13 23h04.25.136437 +0530,
0.7,1000,exp,69,9,5,space,0.6138188999902923,None,574,[0.03666666666666667],[-0.31666666666666665],[1],[0],[0],[4.431085999996867],1,[4.419501100011985],[4.419505700003356],5,9,69,5,525.8358463999903,,525.8218490999861,525.8358463999903,525.9355770999973,526.835672199988,526.835672199988,527.4555953999952,space,0.6138188999902923,None,527.4561155999982,528.1698144666627,528.4849689999974,528.4728247999883,528.4731723999867,528.4849689999974,528.4849689999974,0.00035620000562630594,528.4849689999974,532.9051351999951,574,[0.03666666666666667],[-0.31666666666666665],[1],[0],[0],[4.431085999996867],1,[4.419501100011985],[4.419505700003356],01,001,2024-11-13_22h56.19.559,Intentional Binding,2024.2.1post4,59.71286471856894,2024-11-13 23h04.25.136437 +0530,
0.1,400,unexp,70,10,5,space,0.18315280000388157,None,243,[0.03666666666666667],[-0.31666666666666665],[1],[0],[0],[4.233338100006222],1,[4.220266400006949],[4.220276399995782],5,10,70,0,532.9188077999861,,532.9053568999952,532.9188077999861,533.0187267999863,533.9188947999937,533.9188947999937,534.1058157999942,space,0.18315280000388157,None,534.1063257999922,534.2187260666581,534.5348359999916,534.5211338999943,534.5214654999872,534.5348359999916,534.5348359999916,0.00033889999031089246,534.5348359999916,538.7557763999939,243,[0.03666666666666667],[-0.31666666666666665],[1],[0],[0],[4.233338100006222],1,[4.220266400006949],[4.220276399995782],01,001,2024-11-13_22h56.19.559,Intentional Binding,2024.2.1post4,59.71286471856894,2024-11-13 23h04.25.136437 +0530,
0.7,1000,exp,71,11,5,space,None,None,145,[0.03666666666666667],[-0.31666666666666665],[1],[0],[0],[5.171109000002616],1,[5.15369209999335],[5.153696900000796],5,11,71,8,538.7689420999959,,538.7561261999945,538.7689420999959,538.8685269999987,539.7685413999861,539.7685413999861,540.0058159999899,space,None,None,540.006558899986,540.7186016666567,541.0348823999957,541.0168597999873,541.0172545999958,541.0348823999957,541.0348823999957,0.00039670000842306763,541.0348823999957,546.1890576999867,145,[0.03666666666666667],[-0.31666666666666665],[1],[0],[0],[5.171109000002616],1,[5.15369209999335],[5.153696900000796],01,001,2024-11-13_22h56.19.559,Intentional Binding,2024.2.1post4,59.71286471856894,2024-11-13 23h04.25.136437 +0530,
0.4,400,unexp,72,0,6,space,0.3073722999979509,None,200,[0.03666666666666667],[-0.31666666666666665],[1],[0],[0],[5.082266999990679],1,[5.069122500004596],[5.069126899994444],6,0,72,1,546.2019885999907,,546.1892795999884,546.2019885999907,546.3016338999878,547.2021146999905,547.2021146999905,547.5222789999971,space,0.3073722999979509,None,547.5230558999901,547.9353818666607,548.2516527999978,548.2379646999907,548.2383210999978,548.2516527999978,548.2516527999978,0.00036190000537317246,548.2516527999978,553.3215184999863,200,[0.03666666666666667],[-0.31666666666666665],[1],[0],[0],[5.082266999990679],1,[5.069122500004596],[5.069126899994444],01,001,2024-11-13_22h56.19.559,Intentional Binding,2024.2.1post4,59.71286471856894,2024-11-13 23h04.25.136437 +0530,
0.7,1000,exp,73,1,6,space,None,None,500,[0.03666666666666667],[-0.31666666666666665],[1],[0],[0],[2.9339070999994874],1,[2.9190903999988222],[2.919095000004745],6,1,73,11,553.334872899999,,553.3219380999944,553.334872899999,553.4351958999905,554.3350314999989,554.3350314999989,554.6047827999864,space,None,None,554.6052210999915,555.3186144666581,555.6347922999994,555.6194183999905,555.6197659999889,555.6347922999994,555.6347922999994,0.0003549999964889139,555.6347922999994,558.5544566999888,500,[0.03666666666666667],[-0.31666666666666665],[1],[0],[0],[2.9339070999994874],1,[2.9190903999988222],[2.919095000004745],01,001,2024-11-13_22h56.19.559,Intentional Binding,2024.2.1post4,59.71286471856894,2024-11-13 23h04.25.136437 +0530,
0.7,1000,exp,74,2,6,space,0.42328260000795126,None,500,[0.03666666666666667],[-0.31666666666666665],[1],[0],[0],[2.837129699997604],1,[2.8199552000005497],[2.8199597999919206],6,2,74,8,558.5688832999876,,558.5546858999878,558.5688832999876,558.668506099988,559.5681100999936,559.5681100999936,560.0043698999943,space,0.42328260000795126,None,560.0047968999861,560.7187152666631,561.0344979999936,561.0167047999857,561.0171086999908,561.0344979999936,561.0344979999936,0.00040010000520851463,561.0344979999936,563.855124099995,500,[0.03666666666666667],[-0.31666666666666665],[1],[0],[0],[2.837129699997604],1,[2.8199552000005497],[2.8199597999919206],01,001,2024-11-13_22h56.19.559,Intentional Binding,2024.2.1post4,59.71286471856894,2024-11-13 23h04.25.136437 +0530,
0.1,400,unexp,75,3,6,space,665.0569902999996,None,300,[-0.013333333333333334],[-0.22666666666666666],[1],[0],[0],[2.452126000003773],0,,,6,3,75,0,563.8684566999873,,563.8555187999882,563.8684566999873,563.9693163999909,564.8689386999904,564.8689386999904,1229.9291211999953,space,665.0569902999996,None,1229.929609999992,1230.0422311666664,1230.3586746999936,1230.3425723999972,1230.3430553999933,1230.3586746999936,1230.3586746999936,0.0004951000009896234,1230.3586746999936,1232.795954199988,300,[-0.013333333333333334],[-0.22666666666666666],[1],[0],[0],[2.452126000003773],0,,,01,001,2024-11-13_22h56.19.559,Intentional Binding,2024.2.1post4,59.71286471856894,2024-11-13 23h04.25.136437 +0530,
0.4,1000,exp,76,4,6,space,0.20247699999890756,None,250,[0.006666666666666667],[-0.28833333333333333],[1],[0],[0],[3.8000698999967426],1,[3.7858443000004627],[3.7858500000002095],6,4,76,4,1232.808996199994,,1232.796176399992,1232.808996199994,1232.9092668999947,1233.8094159999891,1233.8094159999891,1234.0288045999914,space,0.20247699999890756,None,1234.029236199989,1234.4427073666632,1234.7583437999856,1234.743642699992,1234.7439521999913,1234.7583437999856,1234.7583437999856,0.0003152999997837469,1234.7583437999856,1238.5448600999953,250,[0.006666666666666667],[-0.28833333333333333],[1],[0],[0],[3.8000698999967426],1,[3.7858443000004627],[3.7858500000002095],01,001,2024-11-13_22h56.19.559,Intentional Binding,2024.2.1post4,59.71286471856894,2024-11-13 23h04.25.136437 +0530,
0.7,400,unexp,77,5,6,space,0.353889000005438,None,300,[0.006666666666666667],[-0.28833333333333333],[1],[0],[0],[2.619201699999394],1,[2.602815499994904],[2.6028205000038724],6,5,77,2,1238.5591195999878,,1238.5451259999973,1238.5591195999878,1238.6592466999864,1239.558806999994,1239.558806999994,1239.9285635999986,space,0.353889000005438,None,1239.9290036999882,1240.642343966658,1240.9583708999999,1240.9413192999928,1240.9416980999958,1240.9583708999999,1240.9583708999999,0.0004056000034324825,1240.9583708999999,1243.5617643999867,300,[0.006666666666666667],[-0.28833333333333333],[1],[0],[0],[2.619201699999394],1,[2.602815499994904],[2.6028205000038724],01,001,2024-11-13_22h56.19.559,Intentional Binding,2024.2.1post4,59.71286471856894,2024-11-13 23h04.25.136437 +0530,
0.4,1000,exp,78,6,6,space,0.6258965999877546,None,500,[0.006666666666666667],[-0.28833333333333333],[1],[0],[0],[2.8718978999968385],1,[2.853414500001236],[2.85341920000792],6,6,78,10,1243.5757135999884,,1243.5619776999956,1243.5757135999884,1243.6749250999856,1244.575291199988,1244.575291199988,1245.2113989999925,space,0.6258965999877546,None,1245.2118442999927,1245.6259446666556,1245.9416932999884,1245.922536299986,1245.9229994999914,1245.9416932999884,1245.9416932999884,0.00047899999481160194,1245.9416932999884,1248.7956717999914,500,[0.006666666666666667],[-0.28833333333333333],[1],[0],[0],[2.8718978999968385],1,[2.853414500001236],[2.85341920000792],01,001,2024-11-13_22h56.19.559,Intentional Binding,2024.2.1post4,59.71286471856894,2024-11-13 23h04.25.136437 +0530,
0.7,1000,exp,79,7,6,space,0.26667209999868646,None,400,[0.006666666666666667],[-0.28833333333333333],[1],[0],[0],[3.032330500005628],1,[3.0201808999991044],[3.020191400006297],6,7,79,5,1248.8087144999881,,1248.7960724999866,1248.8087144999881,1248.9088416999875,1249.8084208999935,1249.8084208999935,1250.0785616999929,space,0.26667209999868646,None,1250.0792358999897,1250.7923870666602,1251.1084416999947,1251.0956545999943,1251.095984399988,1251.1084416999947,1251.1084416999947,0.000337799996486865,1251.1084416999947,1254.1294377999875,400,[0.006666666666666667],[-0.28833333333333333],[1],[0],[0],[3.032330500005628],1,[3.0201808999991044],[3.020191400006297],01,001,2024-11-13_22h56.19.559,Intentional Binding,2024.2.1post4,59.71286471856894,2024-11-13 23h04.25.136437 +0530,
0.4,1000,exp,80,8,6,space,0.30512350000208244,None,300,[0.006666666666666667],[-0.28833333333333333],[1],[0],[0],[2.570477300003404],1,[2.5528899999917485],[2.5528946999984328],6,8,80,7,1254.142060699989,,1254.1298179999867,1254.142060699989,1254.242050899993,1255.1422131,1255.1422131,1255.4608734999929,space,0.30512350000208244,None,1255.461329599988,1255.8756146666603,1256.1913240999856,1256.1729557999934,1256.173468899986,1256.1913240999856,1256.1913240999856,0.0005286000086925924,1256.1913240999856,1258.7447809999867,300,[0.006666666666666667],[-0.28833333333333333],[1],[0],[0],[2.570477300003404],1,[2.5528899999917485],[2.5528946999984328],01,001,2024-11-13_22h56.19.559,Intentional Binding,2024.2.1post4,59.71286471856894,2024-11-13 23h04.25.136437 +0530,
0.1,1000,exp,81,9,6,space,3.017092900001444,None,250,[0.006666666666666667],[-0.28833333333333333],[1],[0],[0],[4.3852774999977555],1,[4.3688207999948645],[4.368825999990804],6,9,81,3,1258.7586515999865,,1258.7450126999902,1258.7586515999865,1258.8588190999872,1259.75855459999,1259.75855459999,1262.7782759999973,space,3.017092900001444,None,1262.7787245999934,1262.8921123666553,1263.208429899998,1263.1914528999914,1263.1917621999892,1263.208429899998,1263.208429899998,0.00032419999479316175,1263.208429899998,1267.5779281999858,250,[0.006666666666666667],[-0.28833333333333333],[1],[0],[0],[4.3852774999977555],1,[4.3688207999948645],[4.368825999990804],01,001,2024-11-13_22h56.19.559,Intentional Binding,2024.2.1post4,59.71286471856894,2024-11-13 23h04.25.136437 +0530,
0.1,1000,exp,82,10,6,space,0.7046813999913866,None,350,[0.006666666666666667],[-0.28833333333333333],[1],[0],[0],[6.780813500008662],1,[6.7697243000002345],[6.769736000002013],6,10,82,6,1267.5922498,,1267.5783288999955,1267.5922498,1267.6918752999918,1268.5916221999942,1268.5916221999942,1269.311521599986,space,0.7046813999913866,None,1269.311956599995,1269.425595666664,1269.7418951,1269.7301996999886,1269.7305123999977,1269.7418951,1269.7418951,0.0003189000126440078,1269.7418951,1276.5127265999909,350,[0.006666666666666667],[-0.28833333333333333],[1],[0],[0],[6.780813500008662],1,[6.7697243000002345],[6.769736000002013],01,001,2024-11-13_22h56.19.559,Intentional Binding,2024.2.1post4,59.71286471856894,2024-11-13 23h04.25.136437 +0530,
0.1,1000,exp,83,11,6,space,0.7931418999942252,None,250,[0.006666666666666667],[-0.28833333333333333],[1],[0],[0],[5.76686730000074],1,[5.753794600008405],[5.7537996000028215],6,11,83,9,1276.5254829999903,,1276.512950999997,1276.5254829999903,1276.625080999991,1277.5251303999976,1277.5251303999976,1278.3277137999976,space,0.7931418999942252,None,1278.3283530999906,1278.4416471666666,1278.7577677999943,1278.7438800999953,1278.7444019999966,1278.7577677999943,1278.7577677999943,0.0005366999976104125,1278.7577677999943,1284.5121593999938,250,[0.006666666666666667],[-0.28833333333333333],[1],[0],[0],[5.76686730000074],1,[5.753794600008405],[5.7537996000028215],01,001,2024-11-13_22h56.19.559,Intentional Binding,2024.2.1post4,59.71286471856894,2024-11-13 23h04.25.136437 +0530,
0.4,1000,exp,84,0,7,space,459.61975820000225,None,300,[0.05333333333333334],[-0.305],[1],[0],[0],[3.498436199995922],1,[3.4853165999957127],[3.485321100000874],7,0,84,4,1284.5252169999876,,1284.5123722999997,1284.5252169999876,1284.6251739999861,1285.5246424999932,1285.5246424999932,1745.1544132999989,space,459.61975820000225,None,1745.154891099999,1745.569901666666,1745.8846406999946,1745.8708356999996,1745.8712700999895,1745.8846406999946,1745.8846406999946,0.000450699997600168,1745.8846406999946,1749.370729599992,300,[0.05333333333333334],[-0.305],[1],[0],[0],[3.498436199995922],1,[3.4853165999957127],[3.485321100000874],01,001,2024-11-13_22h56.19.559,Intentional Binding,2024.2.1post4,59.71286471856894,2024-11-13 23h04.25.136437 +0530,
0.4,1000,exp,85,1,7,space,1.1089969000022393,None,200,[0.08166666666666667],[-0.31166666666666665],[1],[0],[0],[2.9886239000043133],1,[2.9704648000042653],[2.970470000000205],7,1,85,10,1749.3843796999863,,1749.37122239999,1749.3843796999863,1749.4846598999866,1750.385154299991,1750.385154299991,1751.5045879999961,space,1.1089969000022393,None,1751.5050402999914,1751.9179363666665,1752.233764699995,1752.2150847999874,1752.2154179999925,1752.233764699995,1752.233764699995,0.0003392000071471557,1752.233764699995,1755.2048761999904,200,[0.08166666666666667],[-0.31166666666666665],[1],[0],[0],[2.9886239000043133],1,[2.9704648000042653],[2.970470000000205],01,001,2024-11-13_22h56.19.559,Intentional Binding,2024.2.1post4,59.71286471856894,2024-11-13 23h04.25.136437 +0530,
0.7,400,unexp,86,2,7,space,0.14839849999407306,None,300,[0.015],[-0.27166666666666667],[1],[0],[0],[4.202907300001243],1,[4.186804199998733],[4.186809200007701],7,2,86,2,1755.2179823999904,,1755.2050888999947,1755.2179823999904,1755.317799899989,1756.201197699993,1756.217584299986,1756.355376099993,space,0.14839849999407306,None,1756.3560150999983,1757.0675185666662,1757.3840068999998,1757.3668315999967,1757.36768879999,1757.3840068999998,1757.3840068999998,0.0008652000105939806,1757.3840068999998,1761.5713542999874,300,[0.015],[-0.27166666666666667],[1],[0],[0],[4.202907300001243],1,[4.186804199998733],[4.186809200007701],01,001,2024-11-13_22h56.19.559,Intentional Binding,2024.2.1post4,59.71286471856894,2024-11-13 23h04.25.136437 +0530,
0.7,1000,exp,87,3,7,space,1139.0366569000034,None,300,[0.035],[-0.25],[1],[0],[0],[3.3972708999936003],1,[3.386250999988988],[3.386255599994911],7,3,87,11,1761.583822799992,,1761.5715766999929,1761.583822799992,1761.6845133999886,1762.5843915999867,1762.5843915999867,2901.636713899992,space,1139.0366569000034,None,2901.6371786999953,2902.350880466653,2902.6672873999923,2902.6557306999894,2902.6560551999864,2902.6672873999923,2902.6672873999923,0.000331000002915971,2902.6672873999923,2906.0541449999873,300,[0.035],[-0.25],[1],[0],[0],[3.3972708999936003],1,[3.386250999988988],[3.386255599994911],01,001,2024-11-13_22h56.19.559,Intentional Binding,2024.2.1post4,59.71286471856894,2024-11-13 23h04.25.136437 +0530,
0.7,1000,exp,88,4,7,space,2.1370455999858677,None,500,[0.05333333333333334],[-0.3016666666666667],[1],[0],[0],[3.8809813000116264],1,[3.8711229000036838],[3.8711330000078306],7,4,88,5,2906.067416799997,,2906.0543772999954,2906.067416799997,2906.1674700999865,2907.0668406999903,2907.0668406999903,2909.2199953999952,space,2.1370455999858677,None,2909.2204249999922,2909.9340553666593,2910.250073999996,2910.239575499989,2910.2399177999905,2910.250073999996,2910.250073999996,0.00035030000435654074,2910.250073999996,2914.1219865999883,500,[0.05333333333333334],[-0.3016666666666667],[1],[0],[0],[3.8809813000116264],1,[3.8711229000036838],[3.8711330000078306],01,001,2024-11-13_22h56.19.559,Intentional Binding,2024.2.1post4,59.71286471856894,2024-11-13 23h04.25.136437 +0530,
0.1,1000,exp,89,5,7,space,189.23156799998833,None,300,[0.045],[-0.3016666666666667],[1],[0],[0],[2.2383556999993743],1,[2.219876100003603],[2.219880699994974],7,5,89,6,2914.133843299991,,2914.12222189999,2914.133843299991,2914.234119899993,2915.1342670999875,2915.1342670999875,3104.3674889999966,space,189.23156799998833,None,3104.3679166999937,3104.480644766653,3104.7972114999866,3104.777991099996,3104.778456099986,3104.7972114999866,3104.7972114999866,0.0004800000024260953,3104.7972114999866,3107.0176521999965,300,[0.045],[-0.3016666666666667],[1],[0],[0],[2.2383556999993743],1,[2.219876100003603],[2.219880699994974],01,001,2024-11-13_22h56.19.559,Intentional Binding,2024.2.1post4,59.71286471856894,2024-11-13 23h04.25.136437 +0530,
0.1,1000,exp,90,6,7,space,0.10959340000408702,None,200,[0.045],[-0.3016666666666667],[1],[0],[0],[2.717700799999875],1,[2.70278999999573],[2.702795099990908],7,6,90,3,3107.0310297999968,,3107.0178947999957,3107.0310297999968,3107.1313527999882,3108.0308929999883,3108.0308929999883,3108.14980069999,space,0.10959340000408702,None,3108.1502372999967,3108.263986666662,3108.580886699987,3108.565111399992,3108.5656923999923,3108.580886699987,3108.580886699987,0.0006007000047247857,3108.580886699987,3111.284300399988,200,[0.045],[-0.3016666666666667],[1],[0],[0],[2.717700799999875],1,[2.70278999999573],[2.702795099990908],01,001,2024-11-13_22h56.19.559,Intentional Binding,2024.2.1post4,59.71286471856894,2024-11-13 23h04.25.136437 +0530,
0.1,1000,exp,91,7,7,space,0.4830461999954423,None,600,[0.055],[-0.305],[1],[0],[0],[2.8020429000025615],1,[2.7860859999927925],[2.7860905999987153],7,7,91,9,3111.2979867999966,,3111.284520299989,3111.2979867999966,3111.397402799994,3112.2980820999946,3112.2980820999946,3112.7837688,space,0.4830461999954423,None,3112.784198899986,3112.8970359666605,3113.213874899986,3113.1973893999966,3113.197724499987,3113.213874899986,3113.213874899986,0.00034189999860245734,3113.213874899986,3116.0006367999886,600,[0.055],[-0.305],[1],[0],[0],[2.8020429000025615],1,[2.7860859999927925],[2.7860905999987153],01,001,2024-11-13_22h56.19.559,Intentional Binding,2024.2.1post4,59.71286471856894,2024-11-13 23h04.25.136437 +0530,
0.1,400,unexp,92,8,7,space,0.409269800002221,None,700,[0.055],[-0.305],[1],[0],[0],[3.0885678000049666],1,[3.069981699998607],[3.0699864999915008],7,8,92,0,3116.014582299991,,3116.0008488999883,3116.014582299991,3116.113843599989,3117.0141873999964,3117.0141873999964,3117.4334181999875,space,0.409269800002221,None,3117.434128599998,3117.5477436666592,3117.8640199999936,3117.8446934999956,3117.8451500999945,3117.8640199999936,3117.8640199999936,0.00047849999100435525,3117.8640199999936,3120.934672699994,700,[0.055],[-0.305],[1],[0],[0],[3.0885678000049666],1,[3.069981699998607],[3.0699864999915008],01,001,2024-11-13_22h56.19.559,Intentional Binding,2024.2.1post4,59.71286471856894,2024-11-13 23h04.25.136437 +0530,
0.4,1000,exp,93,9,7,space,18.874176299999817,None,400,[0.05],[-0.27666666666666667],[1],[0],[0],[3.7877441000018734],1,[3.7703160000091884],[3.770320700001321],7,9,93,7,3120.947681999998,,3120.9350781999965,3120.947681999998,3121.0470416999888,3121.9472191999957,3121.9472191999957,3140.833259799998,space,18.874176299999817,None,3140.8336942999886,3141.247225966658,3141.5641210999893,3141.546187099986,3141.546520799995,3141.5641210999893,3141.5641210999893,0.00033519999124109745,3141.5641210999893,3145.335015599994,400,[0.05],[-0.27666666666666667],[1],[0],[0],[3.7877441000018734],1,[3.7703160000091884],[3.770320700001321],01,001,2024-11-13_22h56.19.559,Intentional Binding,2024.2.1post4,59.71286471856894,2024-11-13 23h04.25.136437 +0530,
0.4,400,unexp,94,10,7,space,26.940207999999984,None,500,[0.13833333333333334],[-0.32166666666666666],[1],[0],[0],[3.0005603000026895],1,[2.9875790999940364],[2.987589199998183],7,10,94,1,3145.349042499991,,3145.335420699994,3145.349042499991,3145.448665499993,3146.3470835999906,3146.3655931999965,3173.300005099998,space,26.940207999999984,None,3173.30044359999,3173.713169866653,3174.0290323999943,3174.0151475999883,3174.015655899988,3174.0290323999943,3174.0290323999943,0.0005247000080998987,3174.0290323999943,3177.017329899987,500,[0.13833333333333334],[-0.32166666666666666],[1],[0],[0],[3.0005603000026895],1,[2.9875790999940364],[2.987589199998183],01,001,2024-11-13_22h56.19.559,Intentional Binding,2024.2.1post4,59.71286471856894,2024-11-13 23h04.25.136437 +0530,
0.7,1000,exp,95,11,7,space,34.432911599986255,None,700,[0.03],[-0.26666666666666666],[1],[0],[0],[2.2826270000077784],1,[2.2694625000003725],[2.269467000005534],7,11,95,8,3177.029906999989,,3177.017576699989,3177.029906999989,3177.130024099999,3178.029853199987,3178.029853199987,3212.4662272999994,space,34.432911599986255,None,3212.466911299998,3213.1795359666617,3213.4955188999884,3213.4818322999927,3213.4821614999964,3213.4955188999884,3213.4955188999884,0.00033819999953266233,3213.4955188999884,3215.765522799993,700,[0.03],[-0.26666666666666666],[1],[0],[0],[2.2826270000077784],1,[2.2694625000003725],[2.269467000005534],01,001,2024-11-13_22h56.19.559,Intentional Binding,2024.2.1post4,59.71286471856894,2024-11-13 23h04.25.136437 +0530,
0.1,1000,exp,96,0,8,space,43.65792519999377,None,400,[-0.011666666666666667],[-0.295],[1],[0],[0],[2.4000029000017093],1,[2.387469199995394],[2.3874737000005553],8,0,96,3,3215.7795071999863,,3215.7659414999944,3215.7795071999863,3215.881102799991,3216.7790007999865,3216.7790007999865,3260.4477453,space,43.65792519999377,None,3260.4482164999936,3260.561395766654,3260.8767934999923,3260.8634225999995,3260.8639571999956,3260.8767934999923,3260.8767934999923,0.0005540999991353601,3260.8767934999923,3263.2647447999916,400,[-0.011666666666666667],[-0.295],[1],[0],[0],[2.4000029000017093],1,[2.387469199995394],[2.3874737000005553],01,001,2024-11-13_22h56.19.559,Intentional Binding,2024.2.1post4,59.71286471856894,2024-11-13 23h04.25.136437 +0530,
0.1,400,unexp,97,1,8,space,0.2217233999981545,None,600,[0.006666666666666667],[-0.27],[1],[0],[0],[3.5185978999943472],1,[3.502850999997463],[3.5028555000026245],8,1,97,0,3263.278291099996,,3263.2649628999934,3263.278291099996,3263.3780072999944,3264.277960399995,3264.277960399995,3264.5137996999983,space,0.2217233999981545,None,3264.514227099993,3264.627978466659,3264.943874299992,3264.9274020999874,3264.9278582999978,3264.943874299992,3264.943874299992,0.0004726999904960394,3264.943874299992,3268.4472083999863,600,[0.006666666666666667],[-0.27],[1],[0],[0],[3.5185978999943472],1,[3.502850999997463],[3.5028555000026245],01,001,2024-11-13_22h56.19.559,Intentional Binding,2024.2.1post4,59.71286471856894,2024-11-13 23h04.25.136437 +0530,
0.4,1000,exp,98,2,8,space,0.412513699993724,None,800,[0.006666666666666667],[-0.27],[1],[0],[0],[2.4551722000032896],1,[2.436744099992211],[2.436749199987389],8,2,98,4,3268.4607661999908,,3268.44743629999,3268.4607661999908,3268.5612682999927,3269.4607340999937,3269.4607340999937,3269.8807731999987,space,0.412513699993724,None,3269.8812757999985,3270.2942827666598,3270.6103942999907,3270.591464099998,3270.591781899988,3270.6103942999907,3270.6103942999907,0.0003249000001233071,3270.6103942999907,3273.0477729999984,800,[0.006666666666666667],[-0.27],[1],[0],[0],[2.4551722000032896],1,[2.436744099992211],[2.436749199987389],01,001,2024-11-13_22h56.19.559,Intentional Binding,2024.2.1post4,59.71286471856894,2024-11-13 23h04.25.136437 +0530,
0.7,1000,exp,99,3,8,space,0.6032045000029029,None,800,[0.01],[-0.2916666666666667],[1],[0],[0],[3.1462699999974575],1,[3.1371517999941716],[3.1371568000031402],8,3,99,8,3273.061792999986,,3273.048187499997,3273.061792999986,3273.160806,3274.0615049999906,3274.0615049999906,3274.6802447999944,space,0.6032045000029029,None,3274.68067419999,3275.39499676666,3275.710296899997,3275.700555599993,3275.7009695999877,3275.710296899997,3275.710296899997,0.0004098999925190583,3275.710296899997,3278.8480547999934,800,[0.01],[-0.2916666666666667],[1],[0],[0],[3.1462699999974575],1,[3.1371517999941716],[3.1371568000031402],01,001,2024-11-13_22h56.19.559,Intentional Binding,2024.2.1post4,59.71286471856894,2024-11-13 23h04.25.136437 +0530,
0.7,1000,exp,100,4,8,space,0.6228028000041377,None,700,[0.01],[-0.2916666666666667],[1],[0],[0],[2.4822706999984803],1,[2.469598900002893],[2.4696037999965483],8,4,100,5,3278.8612786999875,,3278.848267299996,3278.8612786999875,3278.9609435999882,3279.8608545999887,3279.8608545999887,3280.497395399987,space,0.6228028000041377,None,3280.4981292999873,3281.210921566661,3281.527264499993,3281.513855399986,3281.5143231999973,3281.527264499993,3281.527264499993,0.0004910999996354803,3281.527264499993,3283.9975140999886,700,[0.01],[-0.2916666666666667],[1],[0],[0],[2.4822706999984803],1,[2.469598900002893],[2.4696037999965483],01,001,2024-11-13_22h56.19.559,Intentional Binding,2024.2.1post4,59.71286471856894,2024-11-13 23h04.25.136437 +0530,
0.1,1000,exp,101,5,8,space,0.6832959000021219,None,770,[0.02666666666666667],[-0.33],[1],[0],[0],[3.1843067000008887],1,[3.1688595000014175],[3.168863999992027],8,5,101,6,3284.0114148999855,,3283.9977860999934,3284.0114148999855,3284.110811099992,3285.01054019999,3285.01054019999,3285.697834099992,space,0.6832959000021219,None,3285.6983178999944,3285.811252666656,3286.1274792999902,3286.1113856999873,3286.1118303999974,3286.1274792999902,3286.1274792999902,0.0004403000057209283,3286.1274792999902,3289.296943899986,770,[0.02666666666666667],[-0.33],[1],[0],[0],[3.1843067000008887],1,[3.1688595000014175],[3.168863999992027],01,001,2024-11-13_22h56.19.559,Intentional Binding,2024.2.1post4,59.71286471856894,2024-11-13 23h04.25.136437 +0530,
0.4,1000,exp,102,6,8,space,0.03709449998859782,None,450,[0.02666666666666667],[-0.33],[1],[0],[0],[1.8137552999978652],1,[1.802352400001837],[1.8023573000100441],8,6,102,7,3289.310896699986,,3289.2971570999944,3289.310896699986,3289.4109108999983,3290.3107737999962,3290.3107737999962,3290.3640139999916,space,0.03709449998859782,None,3290.364490299995,3290.777294666656,3291.094001099991,3291.081986899997,3291.082389899995,3291.094001099991,3291.094001099991,0.0003988999960711226,3291.094001099991,3292.8970606999937,450,[0.02666666666666667],[-0.33],[1],[0],[0],[1.8137552999978652],1,[1.802352400001837],[1.8023573000100441],01,001,2024-11-13_22h56.19.559,Intentional Binding,2024.2.1post4,59.71286471856894,2024-11-13 23h04.25.136437 +0530,
0.7,400,unexp,103,7,8,space,0.021423799989861436,None,900,[0.02666666666666667],[-0.33],[1],[0],[0],[2.5822953000024427],1,[2.570667100007995],[2.570678100004443],8,7,103,2,3292.910484299995,,3292.8974814999965,3292.910484299995,3293.0109615999972,3293.9105439999985,3293.9105439999985,3293.9468022999936,space,0.021423799989861436,None,3293.947222799994,3294.6606516666548,3294.976565899997,3294.9643055999913,3294.9646332999982,3294.976565899997,3294.976565899997,0.0003268000000389293,3294.976565899997,3297.547968199986,900,[0.02666666666666667],[-0.33],[1],[0],[0],[2.5822953000024427],1,[2.570667100007995],[2.570678100004443],01,001,2024-11-13_22h56.19.559,Intentional Binding,2024.2.1post4,59.71286471856894,2024-11-13 23h04.25.136437 +0530,
0.4,400,unexp,104,8,8,space,0.13077319999865722,None,900,[0.02666666666666667],[-0.33],[1],[0],[0],[2.6343039000057615],1,[2.6208934000023874],[2.6208982999960426],8,8,104,1,3297.5605724999914,,3297.5481965999934,3297.5605724999914,3297.660764699991,3298.5604351999937,3298.5604351999937,3298.6971356999857,space,0.13077319999865722,None,3298.697881199987,3299.111016966654,3299.426679299999,3299.4124741999985,3299.413019399988,3299.426679299999,3299.426679299999,0.0005640000017592683,3299.426679299999,3302.04815029999,900,[0.02666666666666667],[-0.33],[1],[0],[0],[2.6343039000057615],1,[2.6208934000023874],[2.6208982999960426],01,001,2024-11-13_22h56.19.559,Intentional Binding,2024.2.1post4,59.71286471856894,2024-11-13 23h04.25.136437 +0530,
0.4,1000,exp,105,9,8,space,0.40937599999597296,None,150,[0.02666666666666667],[-0.33],[1],[0],[0],[2.889299899994512],1,[2.8707412000076147],[2.87074610000127],8,9,105,10,3302.0609239999903,,3302.0485284999886,3302.0609239999903,3302.160553599999,3303.0602115999936,3303.0602115999936,3303.4800824999984,space,0.40937599999597296,None,3303.480556999988,3303.893888766663,3304.21021379999,3304.1911597,3304.191472999999,3304.21021379999,3304.21021379999,0.0003176000027451664,3304.21021379999,3307.08159419999,150,[0.02666666666666667],[-0.33],[1],[0],[0],[2.889299899994512],1,[2.8707412000076147],[2.87074610000127],01,001,2024-11-13_22h56.19.559,Intentional Binding,2024.2.1post4,59.71286471856894,2024-11-13 23h04.25.136437 +0530,
0.7,1000,exp,106,10,8,space,None,None,400,[0.055],[-0.205],[1],[0],[0],[3.052482200000668],0,,,8,10,106,11,3307.093768199993,,3307.0818124999932,3307.093768199993,3307.1940747999906,3308.0939190999925,3308.0939190999925,3308.3299621999904,space,None,None,3308.3303781999857,3309.044262066662,3309.36011519999,3309.3429797999997,3309.343319099993,3309.36011519999,3309.36011519999,0.000345199994626455,3309.36011519999,3312.3964656999888,400,[0.055],[-0.205],[1],[0],[0],[3.052482200000668],0,,,01,001,2024-11-13_22h56.19.559,Intentional Binding,2024.2.1post4,59.71286471856894,2024-11-13 23h04.25.136437 +0530,
0.1,1000,exp,107,11,8,space,0.15022910000698175,None,140,[0.12333333333333334],[-0.27166666666666667],[1],[0],[0],[2.3026004999992438],1,[2.2876603999902727],[2.287664899995434],8,11,107,9,3312.411331199997,,3312.39666459999,3312.411331199997,3312.5103901999973,3313.410856699993,3313.410856699993,3313.5633342999936,space,0.15022910000698175,None,3313.5638330999936,3313.677085866661,3313.9929586999933,3313.9774977999914,3313.9778328999964,3313.9929586999933,3313.9929586999933,0.00034359999699518085,3313.9929586999933,3316.2812347,140,[0.12333333333333334],[-0.27166666666666667],[1],[0],[0],[2.3026004999992438],1,[2.2876603999902727],[2.287664899995434],01,001,2024-11-13_22h56.19.559,Intentional Binding,2024.2.1post4,59.71286471856894,2024-11-13 23h04.25.136437 +0530,
0.4,1000,exp,108,0,9,space,0.08114870000281371,None,145,[0.12333333333333334],[-0.27166666666666667],[1],[0],[0],[1.7516552000015508],1,[1.7364303999929689],[1.7364347999973688],9,0,108,7,3316.293719999987,,3316.28145319999,3316.293719999987,3316.3937796999962,3317.294209799991,3317.294209799991,3317.379735399998,space,0.08114870000281371,None,3317.380161299996,3317.793589466663,3318.109773599994,3318.0940223999933,3318.094351199994,3318.109773599994,3318.109773599994,0.00033570000960025936,3318.109773599994,3319.846763399997,145,[0.12333333333333334],[-0.27166666666666667],[1],[0],[0],[1.7516552000015508],1,[1.7364303999929689],[1.7364347999973688],01,001,2024-11-13_22h56.19.559,Intentional Binding,2024.2.1post4,59.71286471856894,2024-11-13 23h04.25.136437 +0530,
0.7,1000,exp,109,1,9,space,0.25983239999914076,None,500,[0.12333333333333334],[-0.27166666666666667],[1],[0],[0],[2.285606600009487],1,[2.26969950000057],[2.26970390000497],9,1,109,8,3319.860495999994,,3319.8469817999867,3319.860495999994,3319.9602984999947,3320.8602040999976,3320.8602040999976,3321.1305670999864,space,0.25983239999914076,None,3321.131071699987,3321.843742966656,3322.1595522999996,3322.1431725999864,3322.1434762999997,3322.1595522999996,3322.1595522999996,0.0003113999991910532,3322.1595522999996,3324.4298595,500,[0.12333333333333334],[-0.27166666666666667],[1],[0],[0],[2.285606600009487],1,[2.26969950000057],[2.26970390000497],01,001,2024-11-13_22h56.19.559,Intentional Binding,2024.2.1post4,59.71286471856894,2024-11-13 23h04.25.136437 +0530,
0.7,1000,exp,110,2,9,space,0.22533950000070035,None,600,[0.08],[-0.31833333333333336],[1],[0],[0],[2.2973182999994606],1,[2.285715000005439],[2.28571959999681],9,2,110,5,3324.4431501999934,,3324.430124899998,3324.4431501999934,3324.543530499999,3325.4439580999897,3325.4439580999897,3325.679244199986,space,0.22533950000070035,None,3325.6796799999865,3326.393668466659,3326.710103199992,3326.6979180999915,3326.6982598999894,3326.710103199992,3326.710103199992,0.0003493999975034967,3326.710103199992,3328.9964593999903,600,[0.08],[-0.31833333333333336],[1],[0],[0],[2.2973182999994606],1,[2.285715000005439],[2.28571959999681],01,001,2024-11-13_22h56.19.559,Intentional Binding,2024.2.1post4,59.71286471856894,2024-11-13 23h04.25.136437 +0530,
0.4,400,unexp,111,3,9,space,0.10257060000731144,None,800,[0.08],[-0.31833333333333336],[1],[0],[0],[2.6023213000007672],1,[2.586091799996211],[2.5860965000028955],9,3,111,1,3329.0103728999966,,3328.9968070999894,3329.0103728999966,3329.1097787999897,3330.010646099996,3330.010646099996,3330.1145807999856,space,0.10257060000731144,None,3330.115014799987,3330.5265384666604,3330.843128099994,3330.8260833999957,3330.8266189999995,3330.843128099994,3330.843128099994,0.0005527000030269846,3330.843128099994,3333.4296831999964,800,[0.08],[-0.31833333333333336],[1],[0],[0],[2.6023213000007672],1,[2.586091799996211],[2.5860965000028955],01,001,2024-11-13_22h56.19.559,Intentional Binding,2024.2.1post4,59.71286471856894,2024-11-13 23h04.25.136437 +0530,
0.1,1000,exp,112,4,9,space,0.3805304999987129,None,500,[0.08],[-0.31833333333333336],[1],[0],[0],[3.2389928000047803],1,[3.2224376000085613],[3.222443000006024],9,4,112,9,3333.4434238999966,,3333.429933499996,3333.4434238999966,3333.543222999986,3334.4438747999957,3334.4438747999957,3334.829581599988,space,0.3805304999987129,None,3334.830062199995,3334.943591066655,3335.259539199993,3335.2423616999877,3335.242703699987,3335.259539199993,3335.259539199993,0.00034619998768903315,3335.259539199993,3338.482745999994,500,[0.08],[-0.31833333333333336],[1],[0],[0],[3.2389928000047803],1,[3.2224376000085613],[3.222443000006024],01,001,2024-11-13_22h56.19.559,Intentional Binding,2024.2.1post4,59.71286471856894,2024-11-13 23h04.25.136437 +0530,
0.4,1000,exp,113,5,9,space,0.3429630000027828,None,400,[0.08],[-0.31833333333333336],[1],[0],[0],[3.8315447000059066],1,[3.820226600000751],[3.820232300000498],9,5,113,4,3338.495005299992,,3338.4831137999863,3338.495005299992,3338.5932665999862,3339.493557499998,3339.5100998999987,3339.846207099996,space,0.3429630000027828,None,3339.8467466999864,3340.259824766665,3340.5761216999963,3340.5642371999857,3340.5645659999864,3340.5761216999963,3340.5761216999963,0.00033710000570863485,3340.5761216999963,3344.3968785999896,400,[0.08],[-0.31833333333333336],[1],[0],[0],[3.8315447000059066],1,[3.820226600000751],[3.820232300000498],01,001,2024-11-13_22h56.19.559,Intentional Binding,2024.2.1post4,59.71286471856894,2024-11-13 23h04.25.136437 +0530,
0.7,400,unexp,114,6,9,space,0.3008200000040233,None,600,[0.08],[-0.31833333333333336],[1],[0],[0],[2.581620799988741],1,[2.5692303999967407],[2.569234900001902],9,6,114,2,3344.4092990999925,,3344.397181499997,3344.4092990999925,3344.5097042999987,3345.4099457999982,3345.4099457999982,3345.713194099997,space,0.3008200000040233,None,3345.7138451999926,3346.4268044666574,3346.742474599989,3346.729569099989,3346.729893099997,3346.742474599989,3346.742474599989,0.00033039999834727496,3346.742474599989,3349.312183199989,600,[0.08],[-0.31833333333333336],[1],[0],[0],[2.581620799988741],1,[2.5692303999967407],[2.569234900001902],01,001,2024-11-13_22h56.19.559,Intentional Binding,2024.2.1post4,59.71286471856894,2024-11-13 23h04.25.136437 +0530,
0.1,1000,exp,115,7,9,space,0.13145469999290071,None,170,[0.08],[-0.31833333333333336],[1],[0],[0],[3.566196800005855],1,[3.553726400001324],[3.5537309999926947],9,7,115,6,3349.3269255999912,,3349.312413199994,3349.3269255999912,3349.4264071999933,3350.326768599989,3350.326768599989,3350.4632649999985,space,0.13145469999290071,None,3350.4637532999914,3350.5768042666646,3350.89247359999,3350.8791012999864,3350.8797221999994,3350.89247359999,3350.89247359999,0.0006374999938998371,3350.89247359999,3354.4468842999922,170,[0.08],[-0.31833333333333336],[1],[0],[0],[3.566196800005855],1,[3.553726400001324],[3.5537309999926947],01,001,2024-11-13_22h56.19.559,Intentional Binding,2024.2.1post4,59.71286471856894,2024-11-13 23h04.25.136437 +0530,
0.4,1000,exp,116,8,9,space,0.3235467999911634,None,300,[0.08],[-0.31833333333333336],[1],[0],[0],[2.949362799990922],1,[2.935208800001419],[2.935213400007342],9,8,116,10,3354.4593998999917,,3354.4472992999945,3354.4593998999917,3354.5598968999984,3355.460254299993,3355.460254299993,3355.7955356999882,space,0.3235467999911634,None,3355.795968199993,3356.2097853666533,3356.525889599987,3356.511160299997,3356.5115503999987,3356.525889599987,3356.525889599987,0.0003935999993700534,3356.525889599987,3359.4616653999983,300,[0.08],[-0.31833333333333336],[1],[0],[0],[2.949362799990922],1,[2.935208800001419],[2.935213400007342],01,001,2024-11-13_22h56.19.559,Intentional Binding,2024.2.1post4,59.71286471856894,2024-11-13 23h04.25.136437 +0530,
0.1,400,unexp,117,9,9,space,0.01823329999751877,None,400,[0.08],[-0.31833333333333336],[1],[0],[0],[2.2177393000019947],1,[2.2030043000122532],[2.203008900003624],9,9,117,0,3359.475972299988,,3359.461892499996,3359.475972299988,3359.576280899986,3360.476939699991,3360.476939699991,3360.4962341999926,space,0.01823329999751877,None,3360.4966553999984,3360.609982466664,3360.9256655999925,3360.9103999999934,3360.9107331999985,3360.9256655999925,3360.9256655999925,0.0003404999879421666,3360.9256655999925,3363.1293493999983,400,[0.08],[-0.31833333333333336],[1],[0],[0],[2.2177393000019947],1,[2.2030043000122532],[2.203008900003624],01,001,2024-11-13_22h56.19.559,Intentional Binding,2024.2.1post4,59.71286471856894,2024-11-13 23h04.25.136437 +0530,
0.1,1000,exp,118,10,9,space,0.8794743000034941,None,400,[0.08],[-0.31833333333333336],[1],[0],[0],[2.6518093000049703],1,[2.6362762000062503],[2.6362815000029514],9,10,118,3,3363.143179199993,,3363.129719699995,3363.143179199993,3363.242932899986,3364.14281189999,3364.14281189999,3365.0285335999943,space,0.8794743000034941,None,3365.0289851999987,3365.1428054666653,3365.4592512999952,3365.4431927999976,3365.4434960999934,3365.4592512999952,3365.4592512999952,0.00030949999927543104,3365.4592512999952,3368.095997899989,400,[0.08],[-0.31833333333333336],[1],[0],[0],[2.6518093000049703],1,[2.6362762000062503],[2.6362815000029514],01,001,2024-11-13_22h56.19.559,Intentional Binding,2024.2.1post4,59.71286471856894,2024-11-13 23h04.25.136437 +0530,
0.7,1000,exp,119,11,9,space,0.06161889999930281,None,500,[0.08166666666666667],[-0.32666666666666666],[1],[0],[0],[2.9641826000006404],1,[2.951939399994444],[2.951944000000367],9,11,119,11,3368.1097184999962,,3368.096218999999,3368.1097184999962,3368.209651399986,3369.1097578999907,3369.1097578999907,3369.1792219999916,space,0.06161889999930281,None,3369.179846299987,3369.893413466653,3370.209411299991,3370.196363799987,3370.196889199986,3370.209411299991,3370.209411299991,0.0005404000112321228,3370.209411299991,3373.1618945999944,500,[0.08166666666666667],[-0.32666666666666666],[1],[0],[0],[2.9641826000006404],1,[2.951939399994444],[2.951944000000367],01,001,2024-11-13_22h56.19.559,Intentional Binding,2024.2.1post4,59.71286471856894,2024-11-13 23h04.25.136437 +0530,
0.4,1000,exp,120,0,10,space,0.3607937999913702,None,160,[0.08166666666666667],[-0.32666666666666666],[1],[0],[0],[4.01551740001014],1,[4.003060099988943],[4.003064799995627],10,0,120,7,3373.1762261999975,,3373.1621232999896,3373.1762261999975,3373.2760565999924,3374.1761389999883,3374.1761389999883,3374.545741799986,space,0.3607937999913702,None,3374.546270299994,3374.959514766659,3375.27579639999,3375.2628000999975,3375.263128599996,3375.27579639999,3375.27579639999,0.00033629999961704016,3375.27579639999,3379.2794288999867,160,[0.08166666666666667],[-0.32666666666666666],[1],[0],[0],[4.01551740001014],1,[4.003060099988943],[4.003064799995627],01,001,2024-11-13_22h56.19.559,Intentional Binding,2024.2.1post4,59.71286471856894,2024-11-13 23h04.25.136437 +0530,
0.7,1000,exp,121,1,10,space,0.1606797000131337,None,300,[0.08166666666666667],[-0.32666666666666666],[1],[0],[0],[5.962344200001098],1,[5.953355899997405],[5.953361899999436],10,1,121,8,3379.293135199987,,3379.2796672999975,3379.293135199987,3379.3931715999934,3380.2928865999856,3380.2928865999856,3380.46188219999,space,0.1606797000131337,None,3380.462311199997,3381.176115166662,3381.4917888999917,3381.4819762999978,3381.4825041999866,3381.4917888999917,3381.4917888999917,0.0005589000065810978,3381.4917888999917,3387.445749899998,300,[0.08166666666666667],[-0.32666666666666666],[1],[0],[0],[5.962344200001098],1,[5.953355899997405],[5.953361899999436],01,001,2024-11-13_22h56.19.559,Intentional Binding,2024.2.1post4,59.71286471856894,2024-11-13 23h04.25.136437 +0530,
0.1,1000,exp,122,2,10,space,0.7863766000082251,None,400,[0.08],[-0.32666666666666666],[1],[0],[0],[4.303994999994757],1,[4.2858111999958055],[4.285816099989461],10,2,122,6,3387.4595162999904,,3387.4459653999947,3387.4595162999904,3387.55976389999,3388.4594892999885,3388.4594892999885,3389.261823199995,space,0.7863766000082251,None,3389.2622611999977,3389.376216166657,3389.692237799987,3389.6735014999867,3389.6738417999877,3389.692237799987,3389.692237799987,0.0003445000038482249,3389.692237799987,3393.9785204999935,400,[0.08],[-0.32666666666666666],[1],[0],[0],[4.303994999994757],1,[4.2858111999958055],[4.285816099989461],01,001,2024-11-13_22h56.19.559,Intentional Binding,2024.2.1post4,59.71286471856894,2024-11-13 23h04.25.136437 +0530,
0.7,1000,exp,123,3,10,space,0.4675106000067899,None,600,[0.08],[-0.32666666666666666],[1],[0],[0],[2.099197400006233],1,[2.0868130000017118],[2.086817699993844],10,3,123,11,3393.992358599993,,3393.9787458999926,3393.992358599993,3394.0923727999907,3394.9929055999964,3394.9929055999964,3395.461437699996,space,0.4675106000067899,None,3395.4618697999977,3396.175707066654,3396.4917903999885,3396.4788834999927,3396.4792141999933,3396.4917903999885,3396.4917903999885,0.0003377000102773309,3396.4917903999885,3398.5792414999887,600,[0.08],[-0.32666666666666666],[1],[0],[0],[2.099197400006233],1,[2.0868130000017118],[2.086817699993844],01,001,2024-11-13_22h56.19.559,Intentional Binding,2024.2.1post4,59.71286471856894,2024-11-13 23h04.25.136437 +0530,
0.1,400,unexp,124,4,10,space,0.23235659999772906,None,770,[0.08],[-0.32666666666666666],[1],[0],[0],[4.517465500000981],1,[4.503747000009753],[4.503752100004931],10,4,124,0,3398.592748799987,,3398.5794688999886,3398.592748799987,3398.6923365999974,3399.5928577999875,3399.5928577999875,3399.8284652999864,space,0.23235659999772906,None,3399.8289100999973,3399.942266566654,3400.2586412999954,3400.244375999988,3400.2447101,3400.2586412999954,3400.2586412999954,0.00034250000317115337,3400.2586412999954,3404.7630312999972,770,[0.08],[-0.32666666666666666],[1],[0],[0],[4.517465500000981],1,[4.503747000009753],[4.503752100004931],01,001,2024-11-13_22h56.19.559,Intentional Binding,2024.2.1post4,59.71286471856894,2024-11-13 23h04.25.136437 +0530,
0.7,1000,exp,125,5,10,space,0.5287410000019008,None,800,[0.08],[-0.32666666666666666],[1],[0],[0],[2.7504860000044573],1,[2.7366975999902934],[2.736702599999262],10,5,125,5,3404.7756850999867,,3404.7632513999997,3404.7756850999867,3404.8757904999948,3405.7759188999917,3405.7759188999917,3406.3118461999984,space,0.5287410000019008,None,3406.3122681999957,3407.0257000666647,3407.3415969999915,3407.3270548999863,3407.3275846999895,3407.3415969999915,3407.3415969999915,0.0005422000103862956,3407.3415969999915,3410.078867599994,800,[0.08],[-0.32666666666666666],[1],[0],[0],[2.7504860000044573],1,[2.7366975999902934],[2.736702599999262],01,001,2024-11-13_22h56.19.559,Intentional Binding,2024.2.1post4,59.71286471856894,2024-11-13 23h04.25.136437 +0530,
0.4,400,unexp,126,6,10,space,0.07103810000990052,None,750,[0.08],[-0.32666666666666666],[1],[0],[0],[2.9849122000014177],1,[2.9696765999979107],[2.969681100003072],10,6,126,1,3410.0920390999963,,3410.079085899997,3410.0920390999963,3410.1922238999978,3411.0921343999944,3411.0921343999944,3411.1781633999926,space,0.07103810000990052,None,3411.178589999996,3411.5923461666575,3411.908273599998,3411.8923316,3411.8927925999888,3411.908273599998,3411.908273599998,0.00047420000191777945,3411.908273599998,3414.8784251999896,750,[0.08],[-0.32666666666666666],[1],[0],[0],[2.9849122000014177],1,[2.9696765999979107],[2.969681100003072],01,001,2024-11-13_22h56.19.559,Intentional Binding,2024.2.1post4,59.71286471856894,2024-11-13 23h04.25.136437 +0530,
0.7,400,unexp,127,7,10,space,0.2509315999923274,None,600,[0.08],[-0.32666666666666666],[1],[0],[0],[3.0673954999947455],1,[3.054698699997971],[3.054704700000002],10,7,127,2,3414.892052299998,,3414.8786529999925,3414.892052299998,3414.9923021999857,3415.892069399997,3415.892069399997,3416.1449051999953,space,0.2509315999923274,None,3416.145618699986,3416.8584398666612,3417.175095899991,3417.1615202999965,3417.162049099992,3417.175095899991,3417.175095899991,0.0005551999929593876,3417.175095899991,3420.2303478999966,600,[0.08],[-0.32666666666666666],[1],[0],[0],[3.0673954999947455],1,[3.054698699997971],[3.054704700000002],01,001,2024-11-13_22h56.19.559,Intentional Binding,2024.2.1post4,59.71286471856894,2024-11-13 23h04.25.136437 +0530,
0.1,1000,exp,128,8,10,space,0.15224900000612251,None,200,[0.08],[-0.32666666666666666],[1],[0],[0],[3.531541999996989],1,[3.5188447999971686],[3.5188569000019925],10,8,128,9,3420.243265799989,,3420.2306592999958,3420.243265799989,3420.343945899993,3421.243732799994,3421.243732799994,3421.39710609999,space,0.15224900000612251,None,3421.3975712999963,3421.5088931666583,3421.8252584999864,3421.8120629999903,3421.812374699992,3421.8252584999864,3421.8252584999864,0.0003188999980920926,3421.8252584999864,3425.3446160999883,200,[0.08],[-0.32666666666666666],[1],[0],[0],[3.531541999996989],1,[3.5188447999971686],[3.5188569000019925],01,001,2024-11-13_22h56.19.559,Intentional Binding,2024.2.1post4,59.71286471856894,2024-11-13 23h04.25.136437 +0530,
0.4,1000,exp,129,9,10,space,0.13936839999223594,None,200,[0.08],[-0.32666666666666666],[1],[0],[0],[1.8970629000104964],1,[1.8866960000013933],[1.8867011999973329],10,9,129,10,3425.359158799998,,3425.3448475999903,3425.359158799998,3425.458507699994,3426.3589049999864,3426.3589049999864,3426.5118350999983,space,0.13936839999223594,None,3426.5123277999955,3426.925446666665,3427.2416060999967,3427.230747499998,3427.231056599994,3427.2416060999967,3427.2416060999967,0.0003138999891234562,3427.2416060999967,3429.1287882999895,200,[0.08],[-0.32666666666666666],[1],[0],[0],[1.8970629000104964],1,[1.8866960000013933],[1.8867011999973329],01,001,2024-11-13_22h56.19.559,Intentional Binding,2024.2.1post4,59.71286471856894,2024-11-13 23h04.25.136437 +0530,
0.1,1000,exp,130,10,10,space,0.2816663999983575,None,180,[0.08],[-0.32666666666666666],[1],[0],[0],[3.613378300011391],1,[3.6028925999999046],[3.602897300006589],10,10,130,3,3429.1422845999914,,3429.1290165999962,3429.1422845999914,3429.24262189999,3430.142136999988,3430.142136999988,3430.4285919999966,space,0.2816663999983575,None,3430.4291508999886,3430.5418612666585,3430.8581859999977,3430.8469688999903,3430.8474265999976,3430.8581859999977,3430.8581859999977,0.00047650000487919897,3430.8581859999977,3434.4615761999885,180,[0.08],[-0.32666666666666666],[1],[0],[0],[3.613378300011391],1,[3.6028925999999046],[3.602897300006589],01,001,2024-11-13_22h56.19.559,Intentional Binding,2024.2.1post4,59.71286471856894,2024-11-13 23h04.25.136437 +0530,
